File: output/3/bigblue-1.csv
Time,Voltage(V),Current(A),Energy(Wh),Capacity(Ah),Energy Proportion(%),Capacity Proportion(%),Irradiance(W/m2),Irradiance/100,Power(W),Efficiency(%),Power Score,Sun Score,Efficiency Score
00:00:00,0.0000,0.0000,0.0000,0.0000,0.00,0.00,120.0,1.2,0.0,0.0,12.0,0.0,12.0
00:00:20,2.7640,0.6779,0.0052,0.0019,0.04,0.05,119.3,1.193,1.87,0.9,11.9,17.8,-5.9
00:00:40,2.7530,0.6756,0.0156,0.0056,0.12,0.16,119.5,1.195,1.86,0.89,12.0,17.7,-5.7
00:01:00,2.7410,0.6706,0.0258,0.0094,0.19,0.27,118.1,1.181,1.84,0.89,11.8,17.5,-5.7
00:01:20,2.7250,0.6512,0.0358,0.0130,0.27,0.38,114.3,1.143,1.77,0.88,11.4,16.9,-5.5
00:01:40,2.7130,0.6387,0.0455,0.0166,0.34,0.48,111.6,1.116,1.73,0.89,11.2,16.5,-5.3
00:02:00,2.7060,0.6395,0.0551,0.0201,0.41,0.59,111.5,1.115,1.73,0.89,11.2,16.5,-5.3
00:02:20,2.6990,0.6423,0.0647,0.0237,0.48,0.69,110.9,1.109,1.73,0.89,11.1,16.5,-5.4
00:02:40,2.6940,0.6493,0.0744,0.0273,0.55,0.80,112.4,1.124,1.75,0.89,11.2,16.7,-5.5
00:03:00,2.6890,0.6561,0.0842,0.0309,0.62,0.90,112.7,1.127,1.76,0.89,11.3,16.8,-5.5
00:03:20,2.7010,0.6531,0.0940,0.0346,0.70,1.01,113.3,1.133,1.76,0.89,11.3,16.8,-5.5
00:03:40,2.6940,0.6519,0.1038,0.0382,0.77,1.11,112.7,1.127,1.76,0.89,11.3,16.8,-5.5
00:04:00,2.6870,0.6482,0.1135,0.0418,0.84,1.22,112.0,1.12,1.74,0.89,11.2,16.6,-5.4
00:04:20,2.6830,0.6508,0.1232,0.0454,0.91,1.32,112.1,1.121,1.75,0.89,11.2,16.7,-5.5
00:04:40,2.6800,0.6569,0.1329,0.0491,0.99,1.43,112.3,1.123,1.76,0.9,11.2,16.8,-5.6
00:05:00,2.6730,0.6538,0.1426,0.0527,1.06,1.54,110.8,1.108,1.75,0.9,11.1,16.7,-5.6
00:05:20,2.6680,0.6488,0.1523,0.0563,1.13,1.64,109.2,1.092,1.73,0.91,10.9,16.5,-5.6
00:05:40,2.6630,0.6443,0.1618,0.0599,1.20,1.75,107.9,1.079,1.72,0.91,10.8,16.4,-5.6
00:06:00,2.6600,0.6445,0.1714,0.0635,1.27,1.85,108.0,1.08,1.71,0.9,10.8,16.3,-5.5
00:06:20,2.6590,0.6543,0.1810,0.0671,1.34,1.96,109.5,1.095,1.74,0.91,11.0,16.6,-5.6
00:06:40,2.6570,0.6617,0.1907,0.0708,1.41,2.06,110.9,1.109,1.76,0.91,11.1,16.8,-5.7
00:07:00,2.6560,0.6715,0.2006,0.0745,1.49,2.17,112.2,1.122,1.78,0.91,11.2,17.0,-5.8
00:07:20,2.6630,0.7156,0.2109,0.0784,1.56,2.28,118.6,1.186,1.91,0.92,11.9,18.2,-6.3
00:07:40,2.7550,1.0376,0.2246,0.0834,1.67,2.43,183.2,1.832,2.86,0.89,18.3,27.2,-8.9
00:08:00,2.7400,1.0156,0.2389,0.0886,1.77,2.58,163.8,1.638,2.78,0.97,16.4,26.5,-10.1
00:08:20,2.6920,0.8811,0.2520,0.0935,1.87,2.73,146.5,1.465,2.37,0.92,14.7,22.6,-7.9
00:08:40,2.8610,1.4367,0.2733,0.1010,2.03,2.94,252,2.52,4.11,0.93,25.2,39.1,-13.9
00:09:00,2.7040,0.9815,0.2894,0.1069,2.15,3.12,167.7,1.677,2.65,0.9,16.8,25.2,-8.4
00:09:20,2.6880,0.9544,0.3037,0.1122,2.25,3.27,161.3,1.613,2.57,0.91,16.1,24.5,-8.4
00:09:40,2.6680,0.9133,0.3175,0.1174,2.35,3.42,153.8,1.538,2.44,0.91,15.4,23.2,-7.8
00:10:00,2.6480,0.8660,0.3304,0.1222,2.45,3.56,143.3,1.433,2.29,0.91,14.3,21.8,-7.5
00:10:20,2.6390,0.8435,0.3428,0.1269,2.54,3.70,138.4,1.384,2.23,0.92,13.8,21.2,-7.4
00:10:40,2.6390,0.8548,0.3553,0.1317,2.63,3.84,139.3,1.393,2.26,0.93,13.9,21.5,-7.6
00:11:00,2.6480,0.8955,0.3683,0.1366,2.73,3.98,147.4,1.474,2.37,0.92,14.7,22.6,-7.9
00:11:20,2.6410,0.8827,0.3813,0.1415,2.83,4.13,145.5,1.455,2.33,0.92,14.6,22.2,-7.6
00:11:40,2.6310,0.8598,0.3940,0.1463,2.92,4.27,141.0,1.41,2.26,0.92,14.1,21.5,-7.4
00:12:00,2.6310,0.8706,0.4067,0.1511,3.01,4.41,142.3,1.423,2.29,0.92,14.2,21.8,-7.6
00:12:20,2.6380,0.8962,0.4197,0.1561,3.11,4.55,145.7,1.457,2.36,0.93,14.6,22.5,-7.9
00:12:40,4.9530,1.9870,0.4539,0.1642,3.36,4.79,665,6.65,9.84,0.85,66.5,93.7,-27.2
00:13:00,2.6390,0.8804,0.4742,0.1711,3.52,4.99,148.5,1.485,2.32,0.89,14.9,22.1,-7.2
00:13:20,2.6110,0.8013,0.4859,0.1756,3.60,5.12,129.8,1.298,2.09,0.92,13.0,19.9,-6.9
00:13:40,2.6090,0.8059,0.4975,0.1801,3.69,5.25,129.7,1.297,2.1,0.93,13.0,20.0,-7.0
00:14:00,2.7290,1.2221,0.5128,0.1858,3.80,5.42,164.5,1.645,3.34,1.16,16.5,31.8,-15.3
00:14:20,2.7220,1.2281,0.5321,0.1928,3.94,5.62,233,2.33,3.34,0.82,23.3,31.8,-8.5
00:14:40,4.9540,1.9860,0.5713,0.2025,4.24,5.90,722,7.22,9.84,0.78,72.2,93.7,-21.5
00:15:00,4.9520,1.9877,0.6260,0.2135,4.64,6.22,727,7.27,9.84,0.77,72.7,93.7,-21.0
00:15:20,4.9490,1.9877,0.6806,0.2245,5.05,6.55,723,7.23,9.84,0.78,72.3,93.7,-21.4
00:15:40,4.9470,1.9881,0.7353,0.2356,5.45,6.87,713,7.13,9.84,0.79,71.3,93.7,-22.4
00:16:00,4.9450,1.9876,0.7899,0.2466,5.86,7.19,705,7.05,9.83,0.8,70.5,93.6,-23.1
00:16:20,4.9430,1.9884,0.8445,0.2577,6.26,7.51,698,6.98,9.83,0.8,69.8,93.6,-23.8
00:16:40,4.9410,1.9876,0.8991,0.2687,6.67,7.83,696,6.96,9.82,0.81,69.6,93.5,-23.9
00:17:00,4.9400,1.9877,0.9536,0.2798,7.07,8.16,693,6.93,9.82,0.81,69.3,93.5,-24.2
00:17:20,4.9380,1.9882,1.0082,0.2908,7.47,8.48,688,6.88,9.82,0.82,68.8,93.5,-24.7
00:17:40,4.9370,1.9879,1.0627,0.3019,7.88,8.80,686,6.86,9.81,0.82,68.6,93.4,-24.8
00:18:00,4.9360,1.9873,1.1172,0.3129,8.28,9.12,683,6.83,9.81,0.82,68.3,93.4,-25.1
00:18:20,4.9370,1.9879,1.1717,0.3239,8.69,9.44,681,6.81,9.81,0.82,68.1,93.4,-25.3
00:18:40,4.9360,1.9868,1.2262,0.3350,9.09,9.77,677,6.77,9.81,0.83,67.7,93.4,-25.7
00:19:00,4.9350,1.9879,1.2807,0.3460,9.49,10.09,671,6.71,9.81,0.84,67.1,93.4,-26.3
00:19:20,4.9340,1.9876,1.3352,0.3571,9.90,10.41,668,6.68,9.81,0.84,66.8,93.4,-26.6
00:19:40,4.9340,1.9873,1.3897,0.3681,10.30,10.73,665,6.65,9.81,0.84,66.5,93.4,-26.9
00:20:00,4.9320,1.9876,1.4442,0.3792,10.71,11.05,661,6.61,9.8,0.85,66.1,93.3,-27.2
00:20:20,4.9320,1.9872,1.4986,0.3902,11.11,11.38,661,6.61,9.8,0.85,66.1,93.3,-27.2
00:20:40,4.9310,1.9874,1.5531,0.4012,11.51,11.70,661,6.61,9.8,0.85,66.1,93.3,-27.2
00:21:00,4.9310,1.9876,1.6075,0.4123,11.92,12.02,659,6.59,9.8,0.85,65.9,93.3,-27.4
00:21:20,4.9300,1.9876,1.6620,0.4233,12.32,12.34,659,6.59,9.8,0.85,65.9,93.3,-27.4
00:21:40,4.9300,1.9877,1.7164,0.4344,12.73,12.66,656,6.56,9.8,0.85,65.6,93.3,-27.7
00:22:00,4.9300,1.9873,1.7708,0.4454,13.13,12.99,658,6.58,9.8,0.85,65.8,93.3,-27.5
00:22:20,4.9310,1.9872,1.8252,0.4564,13.53,13.31,656,6.56,9.8,0.85,65.6,93.3,-27.7
00:22:40,4.9300,1.9869,1.8797,0.4675,13.94,13.63,654,6.54,9.8,0.86,65.4,93.3,-27.9
00:23:00,4.9300,1.9866,1.9341,0.4785,14.34,13.95,653,6.53,9.79,0.86,65.3,93.2,-27.9
00:23:20,4.9300,1.9863,1.9885,0.4896,14.74,14.27,655,6.55,9.79,0.85,65.5,93.2,-27.7
00:23:40,4.9300,1.9869,2.0429,0.5006,15.15,14.59,652,6.52,9.8,0.86,65.2,93.3,-28.1
00:24:00,4.9300,1.9874,2.0974,0.5116,15.55,14.92,652,6.52,9.8,0.86,65.2,93.3,-28.1
00:24:20,4.9300,1.9868,2.1518,0.5227,15.95,15.24,653,6.53,9.79,0.86,65.3,93.2,-27.9
00:24:40,4.9300,1.9867,2.2062,0.5337,16.36,15.56,652,6.52,9.79,0.86,65.2,93.2,-28.0
00:25:00,4.9300,1.9869,2.2606,0.5447,16.76,15.88,648,6.48,9.8,0.86,64.8,93.3,-28.5
00:25:20,4.9300,1.9871,2.3150,0.5558,17.16,16.20,648,6.48,9.8,0.86,64.8,93.3,-28.5
00:25:40,4.9300,1.9867,2.3695,0.5668,17.57,16.53,643,6.43,9.79,0.87,64.3,93.2,-28.9
00:26:00,4.9300,1.9870,2.4239,0.5779,17.97,16.85,640,6.4,9.8,0.88,64.0,93.3,-29.3
00:26:20,4.9300,1.9868,2.4783,0.5889,18.37,17.17,633,6.33,9.79,0.88,63.3,93.2,-29.9
00:26:40,4.9300,1.9871,2.5327,0.5999,18.78,17.49,630,6.3,9.8,0.89,63.0,93.3,-30.3
00:27:00,4.9290,1.9872,2.5871,0.6110,19.18,17.81,625,6.25,9.79,0.9,62.5,93.2,-30.7
00:27:20,4.9290,1.9871,2.6416,0.6220,19.58,18.13,621,6.21,9.79,0.9,62.1,93.2,-31.1
00:27:40,4.9290,1.9871,2.6960,0.6331,19.99,18.46,620,6.2,9.79,0.9,62.0,93.2,-31.2
00:28:00,4.9280,1.9872,2.7504,0.6441,20.39,18.78,613,6.13,9.79,0.91,61.3,93.2,-31.9
00:28:20,4.9270,1.9872,2.8048,0.6551,20.79,19.10,614,6.14,9.79,0.91,61.4,93.2,-31.8
00:28:40,4.9270,1.9874,2.8592,0.6662,21.20,19.42,608,6.08,9.79,0.92,60.8,93.2,-32.4
00:29:00,4.9270,1.9868,2.9136,0.6772,21.60,19.74,607,6.07,9.79,0.92,60.7,93.2,-32.5
00:29:20,4.9260,1.9869,2.9679,0.6883,22.00,20.07,604,6.04,9.79,0.93,60.4,93.2,-32.8
00:29:40,4.9260,1.9867,3.0223,0.6993,22.41,20.39,601,6.01,9.79,0.93,60.1,93.2,-33.1
00:30:00,4.9250,1.9869,3.0767,0.7103,22.81,20.71,602,6.02,9.79,0.93,60.2,93.2,-33.0
00:30:20,4.9250,1.9867,3.1310,0.7214,23.21,21.03,603,6.03,9.78,0.93,60.3,93.1,-32.8
00:30:40,4.9250,1.9866,3.1854,0.7324,23.62,21.35,606,6.06,9.78,0.92,60.6,93.1,-32.5
00:31:00,4.9240,1.9868,3.2397,0.7434,24.02,21.67,606,6.06,9.78,0.92,60.6,93.1,-32.5
00:31:20,4.9240,1.9854,3.2941,0.7545,24.42,22.00,608,6.08,9.78,0.92,60.8,93.1,-32.3
00:31:40,4.9240,1.9871,3.3484,0.7655,24.82,22.32,607,6.07,9.78,0.92,60.7,93.1,-32.4
00:32:00,4.9240,1.9867,3.4027,0.7766,25.23,22.64,606,6.06,9.78,0.92,60.6,93.1,-32.5
00:32:20,4.9240,1.9859,3.4571,0.7876,25.63,22.96,599,5.99,9.78,0.93,59.9,93.1,-33.2
00:32:40,4.9220,1.9853,3.5088,0.7986,26.01,23.28,583,5.83,9.77,0.96,58.3,93.0,-34.7
00:33:00,4.9210,1.9863,3.5631,0.8097,26.42,23.60,584,5.84,9.77,0.96,58.4,93.0,-34.6
00:33:20,4.9230,1.9862,3.6174,0.8207,26.82,23.93,587,5.87,9.78,0.95,58.7,93.1,-34.4
00:33:40,4.9230,1.9868,3.6717,0.8317,27.22,24.25,588,5.88,9.78,0.95,58.8,93.1,-34.3
00:34:00,4.9190,1.9863,3.7260,0.8428,27.62,24.57,569,5.69,9.77,0.98,56.9,93.0,-36.1
00:34:20,4.9250,1.9865,3.7804,0.8538,28.03,24.89,594,5.94,9.78,0.94,59.4,93.1,-33.7
00:34:40,4.9260,1.9866,3.8347,0.8648,28.43,25.21,595,5.95,9.79,0.94,59.5,93.2,-33.7
00:35:00,4.9260,1.9865,3.8891,0.8759,28.83,25.54,598,5.98,9.79,0.94,59.8,93.2,-33.4
00:35:20,4.9260,1.9865,3.9435,0.8869,29.24,25.86,599,5.99,9.79,0.93,59.9,93.2,-33.3
00:35:40,4.9250,1.9863,3.9978,0.8979,29.64,26.18,599,5.99,9.78,0.93,59.9,93.1,-33.2
00:36:00,4.9240,1.9871,4.0522,0.9090,30.04,26.50,597,5.97,9.78,0.94,59.7,93.1,-33.4
00:36:20,4.9220,1.9857,4.1065,0.9200,30.44,26.82,589,5.89,9.77,0.95,58.9,93.0,-34.1
00:36:40,3.3090,1.6841,4.1489,0.9302,30.76,27.12,441,4.41,5.57,0.72,44.1,53.0,-8.9
00:37:00,2.4850,0.5298,4.1564,0.9332,30.81,27.21,90.1,0.901,1.32,0.84,9.0,12.6,-3.6
00:37:20,2.4840,0.5313,4.1637,0.9362,30.87,27.29,89.2,0.892,1.32,0.85,8.9,12.6,-3.7
00:37:40,2.4820,0.5259,4.1710,0.9391,30.92,27.38,88.1,0.881,1.31,0.85,8.8,12.5,-3.7
00:38:00,2.4780,0.5137,4.1780,0.9420,30.98,27.46,84.9,0.849,1.27,0.85,8.5,12.1,-3.6
00:38:20,2.5540,0.7563,4.1874,0.9457,31.05,27.57,116.6,1.166,1.93,0.95,11.7,18.4,-6.7
00:38:40,2.5280,0.6862,4.1979,0.9498,31.12,27.69,123.3,1.233,1.73,0.8,12.3,16.5,-4.2
00:39:00,2.5160,0.6563,4.2071,0.9534,31.19,27.80,105.8,1.058,1.65,0.89,10.6,15.7,-5.1
00:39:20,2.5850,0.8900,4.2185,0.9579,31.28,27.93,137.5,1.375,2.3,0.96,13.8,21.9,-8.1
00:39:40,2.5640,0.8351,4.2307,0.9626,31.37,28.06,137.6,1.376,2.14,0.89,13.8,20.4,-6.6
00:40:00,2.5440,0.7839,4.2425,0.9672,31.45,28.20,131.4,1.314,1.99,0.87,13.1,19.0,-5.9
00:40:20,2.5610,0.8499,4.2539,0.9717,31.54,28.33,125.9,1.259,2.18,0.99,12.6,20.8,-8.2
00:40:40,4.9370,1.9841,4.2982,0.9821,31.87,28.63,527,5.27,9.8,1.06,52.7,93.3,-40.6
00:41:00,4.8810,1.9866,4.3524,0.9931,32.27,28.95,571,5.71,9.7,0.97,57.1,92.4,-35.3
00:41:20,4.9360,1.9865,4.4058,1.0041,32.66,29.27,604,6.04,9.81,0.93,60.4,93.4,-33.0
00:41:40,2.6630,1.1027,4.4381,1.0127,32.90,29.52,162.6,1.626,2.94,1.03,16.3,28.0,-11.7
00:42:00,4.5860,1.9862,4.4815,1.0232,33.23,29.83,518,5.18,9.11,1.0,51.8,86.8,-35.0
00:42:20,2.5900,0.8463,4.5025,1.0302,33.38,30.03,162.5,1.625,2.19,0.77,16.3,20.9,-4.6
00:42:40,2.5520,0.7397,4.5180,1.0360,33.50,30.20,112.7,1.127,1.89,0.96,11.3,18.0,-6.7
00:43:00,2.6650,1.1583,4.5337,1.0419,33.61,30.38,193.7,1.937,3.09,0.91,19.4,29.4,-10.0
00:43:20,4.9380,1.9844,4.5740,1.0518,33.91,30.66,598,5.98,9.8,0.94,59.8,93.3,-33.5
00:43:40,3.3440,1.7025,4.6170,1.0620,34.23,30.96,468,4.68,5.69,0.69,46.8,54.2,-7.4
00:44:00,4.9350,1.9855,4.6537,1.0710,34.50,31.22,548,5.48,9.8,1.02,54.8,93.3,-38.5
00:44:20,4.9350,1.9864,4.7081,1.0820,34.91,31.55,599,5.99,9.8,0.93,59.9,93.3,-33.4
00:44:40,4.9340,1.9865,4.7626,1.0931,35.31,31.87,596,5.96,9.8,0.94,59.6,93.3,-33.7
00:45:00,4.9330,1.9863,4.8170,1.1041,35.71,32.19,591,5.91,9.8,0.95,59.1,93.3,-34.2
00:45:20,4.9320,1.9866,4.8715,1.1152,36.12,32.51,586,5.86,9.8,0.96,58.6,93.3,-34.7
00:45:40,4.9310,1.9858,4.9259,1.1262,36.52,32.83,583,5.83,9.79,0.96,58.3,93.2,-34.9
00:46:00,4.9310,1.9865,4.9803,1.1372,36.92,33.15,580,5.8,9.8,0.97,58.0,93.3,-35.3
00:46:20,4.9300,1.9866,5.0347,1.1483,37.33,33.48,578,5.78,9.79,0.97,57.8,93.2,-35.4
00:46:40,4.9290,1.9870,5.0891,1.1593,37.73,33.80,575,5.75,9.79,0.97,57.5,93.2,-35.7
00:47:00,4.9280,1.9867,5.1435,1.1703,38.13,34.12,573,5.73,9.79,0.98,57.3,93.2,-35.9
00:47:20,4.9270,1.9867,5.1979,1.1814,38.54,34.44,572,5.72,9.79,0.98,57.2,93.2,-36.0
00:47:40,4.9260,1.9865,5.2523,1.1924,38.94,34.76,569,5.69,9.79,0.98,56.9,93.2,-36.3
00:48:00,4.9260,1.9867,5.3066,1.2034,39.34,35.09,570,5.7,9.79,0.98,57.0,93.2,-36.2
00:48:20,4.9260,1.9871,5.3610,1.2145,39.75,35.41,569,5.69,9.79,0.98,56.9,93.2,-36.3
00:48:40,4.9240,1.9863,5.4153,1.2255,40.15,35.73,568,5.68,9.78,0.98,56.8,93.1,-36.3
00:49:00,4.9230,1.9861,5.4697,1.2366,40.55,36.05,567,5.67,9.78,0.99,56.7,93.1,-36.4
00:49:20,4.9220,1.9850,5.5240,1.2476,40.95,36.37,566,5.66,9.77,0.99,56.6,93.0,-36.4
00:49:40,4.9210,1.9867,5.5783,1.2586,41.36,36.69,566,5.66,9.78,0.99,56.6,93.1,-36.5
00:50:00,4.9210,1.9866,5.6326,1.2697,41.76,37.02,565,5.65,9.78,0.99,56.5,93.1,-36.6
00:50:20,4.9200,1.9863,5.6869,1.2807,42.16,37.34,565,5.65,9.77,0.99,56.5,93.0,-36.5
00:50:40,4.9190,1.9862,5.7412,1.2917,42.56,37.66,563,5.63,9.77,0.99,56.3,93.0,-36.7
00:51:00,4.9130,1.9858,5.7954,1.3028,42.97,37.98,561,5.61,9.76,0.99,56.1,93.0,-36.9
00:51:20,4.8890,1.9869,5.8495,1.3138,43.37,38.30,559,5.59,9.71,0.99,55.9,92.5,-36.6
00:51:40,4.8600,1.9868,5.9032,1.3248,43.77,38.62,557,5.57,9.66,0.99,55.7,92.0,-36.3
00:52:00,4.8270,1.9870,5.9566,1.3359,44.16,38.95,554,5.54,9.59,0.99,55.4,91.3,-35.9
00:52:20,4.8100,1.9866,6.0097,1.3469,44.56,39.27,553,5.53,9.56,0.99,55.3,91.0,-35.7
00:52:40,4.7850,1.9861,6.0626,1.3580,44.95,39.59,551,5.51,9.5,0.99,55.1,90.5,-35.4
00:53:00,4.7710,1.9860,6.1152,1.3690,45.34,39.91,550,5.5,9.48,0.98,55.0,90.3,-35.3
00:53:20,4.7760,1.9859,6.1679,1.3800,45.73,40.23,551,5.51,9.48,0.98,55.1,90.3,-35.2
00:53:40,4.7740,1.9866,6.2206,1.3911,46.12,40.56,549,5.49,9.48,0.99,54.9,90.3,-35.4
00:54:00,4.7670,1.9862,6.2732,1.4021,46.51,40.88,550,5.5,9.47,0.98,55.0,90.2,-35.2
00:54:20,4.7730,1.9864,6.3259,1.4131,46.90,41.20,551,5.51,9.48,0.98,55.1,90.3,-35.2
00:54:40,4.7820,1.9865,6.3786,1.4242,47.29,41.52,550,5.5,9.5,0.99,55.0,90.5,-35.5
00:55:00,4.7860,1.9866,6.4314,1.4352,47.68,41.84,550,5.5,9.51,0.99,55.0,90.6,-35.6
00:55:20,4.7870,1.9862,6.4842,1.4462,48.07,42.16,550,5.5,9.51,0.99,55.0,90.6,-35.6
00:55:40,4.8020,1.9867,6.5372,1.4573,48.47,42.49,552,5.52,9.54,0.99,55.2,90.9,-35.7
00:56:00,4.8080,1.9868,6.5902,1.4683,48.86,42.81,552,5.52,9.55,0.99,55.2,91.0,-35.8
00:56:20,4.7940,1.9868,6.6432,1.4793,49.25,43.13,549,5.49,9.52,0.99,54.9,90.7,-35.8
00:56:40,4.7750,1.9855,6.6959,1.4904,49.64,43.45,546,5.46,9.48,0.99,54.6,90.3,-35.7
00:57:00,4.7570,1.9862,6.7484,1.5014,50.03,43.77,544,5.44,9.45,0.99,54.4,90.0,-35.6
00:57:20,4.7300,1.9855,6.8007,1.5124,50.42,44.09,543,5.43,9.39,0.99,54.3,89.4,-35.1
00:57:40,4.7010,1.9859,6.8526,1.5235,50.80,44.42,541,5.41,9.34,0.99,54.1,89.0,-34.9
00:58:00,4.6760,1.9857,6.9043,1.5345,51.19,44.74,538,5.38,9.29,0.99,53.8,88.5,-34.7
00:58:20,4.6220,1.9867,6.9555,1.5455,51.57,45.06,535,5.35,9.18,0.98,53.5,87.4,-33.9
00:58:40,4.5930,1.9845,7.0062,1.5566,51.94,45.38,532,5.32,9.11,0.98,53.2,86.8,-33.6
00:59:00,4.5740,1.9853,7.0567,1.5676,52.32,45.70,531,5.31,9.08,0.98,53.1,86.5,-33.4
00:59:20,4.5560,1.9859,7.1070,1.5786,52.69,46.02,530,5.3,9.05,0.98,53.0,86.2,-33.2
00:59:40,4.5580,1.9864,7.1572,1.5897,53.06,46.35,529,5.29,9.05,0.98,52.9,86.2,-33.3
01:00:00,4.5300,1.9861,7.2073,1.6007,53.43,46.67,527,5.27,9.0,0.98,52.7,85.7,-33.0
01:00:20,4.5060,1.9846,7.2571,1.6117,53.80,46.99,526,5.26,8.94,0.97,52.6,85.1,-32.5
01:00:40,4.4840,1.9856,7.3066,1.6228,54.17,47.31,524,5.24,8.9,0.97,52.4,84.8,-32.4
01:01:00,4.4770,1.9855,7.3560,1.6338,54.54,47.63,523,5.23,8.89,0.97,52.3,84.7,-32.4
01:01:20,4.4650,1.9858,7.4053,1.6448,54.90,47.95,522,5.22,8.87,0.97,52.2,84.5,-32.3
01:01:40,4.4510,1.9838,7.4544,1.6558,55.27,48.27,522,5.22,8.83,0.97,52.2,84.1,-31.9
01:02:00,4.3960,1.9823,7.5030,1.6669,55.63,48.60,517,5.17,8.71,0.96,51.7,83.0,-31.3
01:02:20,4.3700,1.9829,7.5513,1.6779,55.98,48.92,515,5.15,8.67,0.96,51.5,82.6,-31.1
01:02:40,4.3640,1.9830,7.5994,1.6889,56.34,49.24,514,5.14,8.65,0.96,51.4,82.4,-31.0
01:03:00,4.3060,1.9816,7.6470,1.6999,56.69,49.56,511,5.11,8.53,0.95,51.1,81.2,-30.1
01:03:20,4.2950,1.9817,7.6942,1.7109,57.04,49.88,512,5.12,8.51,0.95,51.2,81.0,-29.8
01:03:40,4.3210,1.9840,7.7418,1.7219,57.40,50.20,509,5.09,8.57,0.96,50.9,81.6,-30.7
01:04:00,4.3110,1.9846,7.7894,1.7330,57.75,50.52,510,5.1,8.56,0.96,51.0,81.5,-30.5
01:04:20,4.3200,1.9848,7.8371,1.7440,58.10,50.84,509,5.09,8.57,0.96,50.9,81.6,-30.7
01:04:40,4.2890,1.9846,7.8845,1.7550,58.45,51.17,507,5.07,8.51,0.96,50.7,81.0,-30.3
01:05:00,4.1710,1.9765,7.9304,1.7660,58.80,51.49,506,5.06,8.24,0.93,50.6,78.5,-27.9
01:05:20,4.1250,1.9746,7.9758,1.7770,59.13,51.81,503,5.03,8.15,0.93,50.3,77.6,-27.3
01:05:40,4.1540,1.9785,8.0214,1.7879,59.47,52.13,505,5.05,8.22,0.93,50.5,78.3,-27.8
01:06:00,4.1330,1.9758,8.0669,1.7989,59.81,52.45,503,5.03,8.17,0.93,50.3,77.8,-27.5
01:06:20,4.1380,1.9763,8.1131,1.8099,60.15,52.77,506,5.06,8.18,0.92,50.6,77.9,-27.3
01:06:40,3.6950,1.8432,8.1548,1.8205,60.46,53.08,444,4.44,6.81,0.88,44.4,64.9,-20.5
01:07:00,2.5940,0.8720,8.1670,1.8252,60.55,53.21,111.4,1.114,2.26,1.16,11.1,21.5,-10.4
01:07:20,2.5010,0.6152,8.1810,1.8305,60.65,53.37,128.3,1.283,1.54,0.69,12.8,14.7,-1.9
01:07:40,2.5010,0.6184,8.1894,1.8339,60.72,53.47,104.2,1.042,1.55,0.85,10.4,14.8,-4.4
01:08:00,2.5210,0.6874,8.1988,1.8376,60.78,53.57,114.0,1.14,1.73,0.87,11.4,16.5,-5.1
01:08:20,2.5480,0.7750,8.2094,1.8418,60.86,53.70,127.5,1.275,1.97,0.88,12.8,18.8,-6.0
01:08:40,2.6180,1.0305,8.2227,1.8469,60.96,53.85,165.0,1.65,2.7,0.94,16.5,25.7,-9.2
01:09:00,3.7230,1.8440,8.2521,1.8558,61.18,54.11,367,3.67,6.87,1.07,36.7,65.4,-28.7
01:09:20,4.8560,1.9855,8.2968,1.8663,61.51,54.41,548,5.48,9.64,1.01,54.8,91.8,-37.0
01:09:40,4.8330,1.9865,8.3500,1.8774,61.91,54.73,550,5.5,9.6,1.0,55.0,91.4,-36.4
01:10:00,4.8380,1.9872,8.4020,1.8884,62.29,55.05,549,5.49,9.61,1.0,54.9,91.5,-36.6
01:10:20,4.7180,1.9860,8.4543,1.8994,62.68,55.38,540,5.4,9.37,0.99,54.0,89.2,-35.2
01:10:40,4.7250,1.9861,8.5064,1.9105,63.07,55.70,541,5.41,9.38,0.99,54.1,89.3,-35.2
01:11:00,4.6250,1.9863,8.5580,1.9215,63.45,56.02,542,5.42,9.19,0.97,54.2,87.5,-33.3
01:11:20,4.2490,1.9793,8.6062,1.9325,63.81,56.34,503,5.03,8.41,0.96,50.3,80.1,-29.8
01:11:40,3.7170,1.8610,8.6495,1.9432,64.13,56.65,472,4.72,6.92,0.84,47.2,65.9,-18.7
01:12:00,4.6800,1.9866,8.6933,1.9537,64.45,56.96,536,5.36,9.3,0.99,53.6,88.6,-35.0
01:12:20,4.5960,1.9886,8.7445,1.9647,64.83,57.28,536,5.36,9.14,0.97,53.6,87.0,-33.4
01:12:40,4.5000,1.9862,8.7945,1.9758,65.20,57.60,530,5.3,8.94,0.96,53.0,85.1,-32.1
01:13:00,4.4510,1.9856,8.8437,1.9868,65.57,57.92,527,5.27,8.84,0.96,52.7,84.2,-31.5
01:13:20,4.4040,1.9836,8.8923,1.9978,65.93,58.24,524,5.24,8.74,0.95,52.4,83.2,-30.8
01:13:40,4.3070,1.9842,8.9401,2.0088,66.28,58.57,516,5.16,8.55,0.95,51.6,81.4,-29.8
01:14:00,4.2480,1.9812,8.9872,2.0198,66.63,58.89,513,5.13,8.42,0.94,51.3,80.2,-28.9
01:14:20,4.1800,1.9777,9.0332,2.0308,66.97,59.21,508,5.08,8.27,0.93,50.8,78.8,-28.0
01:14:40,4.1390,1.9755,9.0788,2.0418,67.31,59.53,506,5.06,8.18,0.92,50.6,77.9,-27.3
01:15:00,4.0770,1.9715,9.1236,2.0528,67.64,59.85,503,5.03,8.04,0.91,50.3,76.6,-26.3
01:15:20,3.9340,1.9497,9.1667,2.0636,67.96,60.16,490,4.9,7.67,0.89,49.0,73.0,-24.0
01:15:40,3.9170,1.9482,9.2091,2.0744,68.27,60.48,486,4.86,7.63,0.9,48.6,72.7,-24.1
01:16:00,3.9100,1.9486,9.2514,2.0853,68.59,60.79,485,4.85,7.62,0.9,48.5,72.6,-24.1
01:16:20,3.8830,1.9352,9.2935,2.0961,68.90,61.11,480,4.8,7.51,0.89,48.0,71.5,-23.5
01:16:40,3.8040,1.8957,9.3342,2.1067,69.20,61.42,464,4.64,7.21,0.89,46.4,68.7,-22.3
01:17:00,3.6010,1.7975,9.3710,2.1168,69.48,61.71,415,4.15,6.47,0.89,41.5,61.6,-20.1
01:17:20,3.3620,1.6909,9.4039,2.1263,69.72,61.99,372,3.72,5.68,0.87,37.2,54.1,-16.9
01:17:40,3.2680,1.6880,9.4341,2.1356,69.94,62.26,348,3.48,5.52,0.91,34.8,52.6,-17.8
01:18:00,3.5930,1.7908,9.4697,2.1455,70.21,62.55,401,4.01,6.43,0.92,40.1,61.2,-21.1
01:18:20,3.5160,1.7608,9.5057,2.1555,70.47,62.84,406,4.06,6.19,0.87,40.6,59.0,-18.4
01:18:40,3.8420,1.9124,9.5430,2.1657,70.75,63.14,448,4.48,7.35,0.94,44.8,70.0,-25.2
01:19:00,3.7980,1.8910,9.5839,2.1763,71.05,63.45,454,4.54,7.18,0.9,45.4,68.4,-23.0
01:19:20,3.8870,1.9362,9.6250,2.1870,71.36,63.76,471,4.71,7.53,0.91,47.1,71.7,-24.6
01:19:40,3.9560,1.9528,9.6677,2.1978,71.68,64.08,485,4.85,7.73,0.91,48.5,73.6,-25.1
01:20:00,3.9500,1.9526,9.7106,2.2087,71.99,64.39,484,4.84,7.71,0.91,48.4,73.4,-25.0
01:20:20,3.9290,1.9547,9.7532,2.2195,72.31,64.71,480,4.8,7.68,0.91,48.0,73.1,-25.1
01:20:40,3.9040,1.9462,9.7955,2.2303,72.62,65.02,475,4.75,7.6,0.91,47.5,72.4,-24.9
01:21:00,3.8880,1.9385,9.8375,2.2411,72.93,65.34,473,4.73,7.54,0.91,47.3,71.8,-24.5
01:21:20,3.8690,1.9281,9.8790,2.2518,73.24,65.65,469,4.69,7.46,0.91,46.9,71.0,-24.1
01:21:40,3.8560,1.9214,9.9203,2.2625,73.55,65.96,464,4.64,7.41,0.91,46.4,70.6,-24.2
01:22:00,3.8450,1.9156,9.9612,2.2731,73.85,66.27,460,4.6,7.37,0.92,46.0,70.2,-24.2
01:22:20,3.8270,1.9065,10.0019,2.2838,74.15,66.58,457,4.57,7.3,0.91,45.7,69.5,-23.8
01:22:40,3.8080,1.8971,10.0421,2.2943,74.45,66.89,451,4.51,7.22,0.91,45.1,68.8,-23.7
01:23:00,3.8030,1.8925,10.0822,2.3048,74.75,67.20,449,4.49,7.2,0.92,44.9,68.6,-23.7
01:23:20,3.7880,1.8862,10.1219,2.3153,75.04,67.50,445,4.45,7.14,0.92,44.5,68.0,-23.5
01:23:40,3.7750,1.8804,10.1614,2.3258,75.34,67.81,442,4.42,7.1,0.92,44.2,67.6,-23.4
01:24:00,3.7760,1.8811,10.2009,2.3362,75.63,68.11,442,4.42,7.1,0.92,44.2,67.6,-23.4
01:24:20,3.7740,1.8795,10.2403,2.3467,75.92,68.41,441,4.41,7.09,0.92,44.1,67.5,-23.4
01:24:40,3.7690,1.8768,10.2796,2.3571,76.21,68.72,441,4.41,7.07,0.92,44.1,67.3,-23.2
01:25:00,3.7600,1.8723,10.3188,2.3675,76.50,69.02,439,4.39,7.04,0.92,43.9,67.0,-23.1
01:25:20,3.7390,1.8617,10.3576,2.3779,76.79,69.32,433,4.33,6.96,0.92,43.3,66.3,-23.0
01:25:40,3.7080,1.8477,10.3957,2.3881,77.07,69.62,425,4.25,6.85,0.92,42.5,65.2,-22.7
01:26:00,3.6920,1.8385,10.4336,2.3984,77.35,69.92,423,4.23,6.79,0.92,42.3,64.7,-22.4
01:26:20,3.6050,1.7983,10.4701,2.4084,77.62,70.22,407,4.07,6.48,0.91,40.7,61.7,-21.0
01:26:40,3.4790,1.7434,10.5046,2.4182,77.88,70.50,386,3.86,6.07,0.9,38.6,57.8,-19.2
01:27:00,3.5250,1.7642,10.5384,2.4279,78.13,70.78,382,3.82,6.22,0.93,38.2,59.2,-21.0
01:27:20,3.5940,1.7965,10.5739,2.4378,78.39,71.07,400,4.0,6.46,0.92,40.0,61.5,-21.5
01:27:40,3.6930,1.8387,10.6112,2.4480,78.67,71.37,420,4.2,6.79,0.92,42.0,64.7,-22.7
01:28:00,3.7070,1.8454,10.6492,2.4583,78.95,71.67,428,4.28,6.84,0.91,42.8,65.1,-22.3
01:28:20,3.7090,1.8472,10.6872,2.4685,79.23,71.97,428,4.28,6.85,0.91,42.8,65.2,-22.4
01:28:40,3.7130,1.8493,10.7254,2.4788,79.52,72.27,428,4.28,6.87,0.92,42.8,65.4,-22.6
01:29:00,3.7130,1.8496,10.7635,2.4891,79.80,72.57,427,4.27,6.87,0.92,42.7,65.4,-22.7
01:29:20,3.7190,1.8518,10.8017,2.4993,80.08,72.87,428,4.28,6.89,0.92,42.8,65.6,-22.8
01:29:40,3.7250,1.8556,10.8401,2.5096,80.37,73.17,430,4.3,6.91,0.92,43.0,65.8,-22.8
01:30:00,3.7270,1.8565,10.8785,2.5200,80.65,73.47,431,4.31,6.92,0.92,43.1,65.9,-22.8
01:30:20,3.7300,1.8580,10.9170,2.5303,80.94,73.77,430,4.3,6.93,0.92,43.0,66.0,-23.0
01:30:40,3.7270,1.8553,10.9555,2.5406,81.22,74.07,429,4.29,6.91,0.92,42.9,65.8,-22.9
01:31:00,3.7200,1.8531,10.9938,2.5509,81.51,74.37,427,4.27,6.89,0.92,42.7,65.6,-22.9
01:31:20,3.7110,1.8483,11.0320,2.5612,81.79,74.67,427,4.27,6.86,0.92,42.7,65.3,-22.6
01:31:40,3.7010,1.8446,11.0699,2.5714,82.07,74.97,424,4.24,6.83,0.92,42.4,65.0,-22.6
01:32:00,3.6930,1.8397,11.1077,2.5816,82.35,75.27,421,4.21,6.79,0.92,42.1,64.7,-22.6
01:32:20,3.6850,1.8358,11.1453,2.5918,82.63,75.56,420,4.2,6.76,0.92,42.0,64.4,-22.4
01:32:40,3.6760,1.8312,11.1828,2.6020,82.91,75.86,419,4.19,6.73,0.92,41.9,64.1,-22.2
01:33:00,3.6670,1.8270,11.2200,2.6122,83.18,76.16,418,4.18,6.7,0.92,41.8,63.8,-22.0
01:33:20,3.6610,1.8243,11.2572,2.6223,83.46,76.45,416,4.16,6.68,0.92,41.6,63.6,-22.0
01:33:40,3.6580,1.8238,11.2942,2.6324,83.73,76.75,416,4.16,6.67,0.92,41.6,63.5,-21.9
01:34:00,3.6590,1.8241,11.3313,2.6426,84.01,77.04,416,4.16,6.67,0.92,41.6,63.5,-21.9
01:34:20,3.6520,1.8215,11.3683,2.6527,84.28,77.34,414,4.14,6.65,0.92,41.4,63.3,-21.9
01:34:40,3.6560,1.8229,11.4053,2.6628,84.56,77.63,416,4.16,6.66,0.91,41.6,63.4,-21.8
01:35:00,3.6350,1.8118,11.4421,2.6729,84.83,77.93,414,4.14,6.59,0.91,41.4,62.8,-21.4
01:35:20,3.5980,1.7973,11.4781,2.6829,85.10,78.22,404,4.04,6.47,0.92,40.4,61.6,-21.2
01:35:40,3.6450,1.8169,11.5147,2.6930,85.37,78.51,413,4.13,6.62,0.92,41.3,63.0,-21.7
01:36:00,3.6570,1.8229,11.5517,2.7031,85.64,78.81,417,4.17,6.67,0.91,41.7,63.5,-21.8
01:36:20,3.6460,1.8176,11.5886,2.7132,85.92,79.10,417,4.17,6.63,0.91,41.7,63.1,-21.4
01:36:40,3.5560,1.7784,11.6242,2.7232,86.18,79.39,401,4.01,6.32,0.9,40.1,60.2,-20.1
01:37:00,3.4290,1.7226,11.6576,2.7328,86.43,79.67,376,3.76,5.91,0.9,37.6,56.3,-18.7
01:37:20,3.3080,1.6713,11.6889,2.7422,86.66,79.95,355,3.55,5.53,0.89,35.5,52.7,-17.2
01:37:40,3.2630,1.6614,11.7192,2.7514,86.88,80.22,349,3.49,5.42,0.89,34.9,51.6,-16.7
01:38:00,3.1640,1.6477,11.7485,2.7606,87.10,80.48,339,3.39,5.21,0.88,33.9,49.6,-15.7
01:38:20,3.1540,1.6420,11.7774,2.7698,87.32,80.75,337,3.37,5.18,0.88,33.7,49.3,-15.6
01:38:40,3.0470,1.5922,11.8049,2.7787,87.52,81.01,322,3.22,4.85,0.86,32.2,46.2,-14.0
01:39:00,3.0070,1.5737,11.8311,2.7874,87.71,81.26,310,3.1,4.73,0.87,31.0,45.0,-14.0
01:39:20,2.9180,1.5278,11.8566,2.7960,87.90,81.52,301,3.01,4.46,0.85,30.1,42.5,-12.4
01:39:40,2.6370,1.1885,11.8770,2.8035,88.05,81.73,237,2.37,3.13,0.75,23.7,29.8,-6.1
01:40:00,2.8460,1.4884,11.8987,2.8113,88.22,81.96,280,2.8,4.24,0.87,28.0,40.4,-12.4
01:40:20,5.1510,0.1366,11.9124,2.8158,88.32,82.09,283,2.83,0.7,0.14,28.3,6.7,21.6
01:40:40,2.9290,1.5365,11.9370,2.8243,88.50,82.34,296,2.96,4.5,0.87,29.6,42.9,-13.3
01:41:00,2.6330,1.1566,11.9574,2.8316,88.65,82.55,227,2.27,3.05,0.77,22.7,29.0,-6.3
01:41:20,2.4330,0.5306,11.9648,2.8347,88.70,82.64,98.9,0.989,1.29,0.75,9.9,12.3,-2.4
01:41:40,2.4050,0.4411,11.9708,2.8372,88.75,82.72,77.9,0.779,1.06,0.78,7.8,10.1,-2.3
01:42:00,2.4020,0.4221,11.9766,2.8396,88.79,82.79,74.6,0.746,1.01,0.77,7.5,9.6,-2.1
01:42:20,2.4000,0.4074,11.9820,2.8418,88.83,82.85,71.9,0.719,0.98,0.78,7.2,9.3,-2.1
01:42:40,2.4030,0.4065,11.9875,2.8441,88.87,82.92,71.0,0.71,0.98,0.79,7.1,9.3,-2.2
01:43:00,2.4080,0.4100,11.9929,2.8464,88.91,82.98,71.5,0.715,0.99,0.79,7.2,9.4,-2.2
01:43:20,2.4150,0.4199,11.9985,2.8487,88.96,83.05,72.5,0.725,1.01,0.8,7.3,9.6,-2.3
01:43:40,2.4220,0.4334,12.0043,2.8511,89.00,83.12,75.2,0.752,1.05,0.8,7.5,10.0,-2.5
01:44:00,2.4240,0.4329,12.0101,2.8535,89.04,83.19,75.9,0.759,1.05,0.79,7.6,10.0,-2.4
01:44:20,2.4230,0.4233,12.0159,2.8559,89.08,83.26,73.4,0.734,1.03,0.8,7.3,9.8,-2.5
01:44:40,2.4210,0.4104,12.0215,2.8582,89.13,83.33,72.1,0.721,0.99,0.78,7.2,9.4,-2.2
01:45:00,2.4180,0.3968,12.0268,2.8604,89.17,83.39,69.2,0.692,0.96,0.79,6.9,9.1,-2.2
01:45:20,2.4160,0.3845,12.0320,2.8625,89.20,83.45,68.0,0.68,0.93,0.78,6.8,8.9,-2.1
01:45:40,2.4140,0.3720,12.0371,2.8646,89.24,83.52,66.3,0.663,0.9,0.78,6.6,8.6,-2.0
01:46:00,2.4130,0.3607,12.0419,2.8666,89.28,83.57,63.2,0.632,0.87,0.79,6.3,8.3,-2.0
01:46:20,2.4120,0.3529,12.0467,2.8686,89.31,83.63,63.1,0.631,0.85,0.77,6.3,8.1,-1.8
01:46:40,2.4130,0.3491,12.0514,2.8706,89.35,83.69,62.6,0.626,0.84,0.77,6.3,8.0,-1.7
01:47:00,2.4160,0.3478,12.0560,2.8725,89.38,83.74,61.8,0.618,0.84,0.78,6.2,8.0,-1.8
01:47:20,2.4200,0.3530,12.0608,2.8744,89.42,83.80,62.8,0.628,0.85,0.77,6.3,8.1,-1.8
01:47:40,2.4260,0.3634,12.0656,2.8764,89.45,83.86,64.9,0.649,0.88,0.77,6.5,8.4,-1.9
01:48:00,2.4330,0.3785,12.0707,2.8785,89.49,83.92,67.2,0.672,0.92,0.78,6.7,8.8,-2.1
01:48:20,2.4410,0.3959,12.0760,2.8807,89.53,83.98,69.8,0.698,0.97,0.79,7.0,9.2,-2.2
01:48:40,2.4470,0.4096,12.0815,2.8830,89.57,84.05,72.0,0.72,1.0,0.79,7.2,9.5,-2.3
01:49:00,2.4530,0.4233,12.0872,2.8853,89.61,84.12,74.0,0.74,1.04,0.8,7.4,9.9,-2.5
01:49:20,2.4590,0.4385,12.0932,2.8877,89.66,84.19,75.9,0.759,1.08,0.81,7.6,10.3,-2.7
01:49:40,2.4640,0.4488,12.0993,2.8902,89.70,84.26,77.9,0.779,1.11,0.81,7.8,10.6,-2.8
01:50:00,2.4690,0.4634,12.1056,2.8927,89.75,84.34,80.6,0.806,1.14,0.81,8.1,10.9,-2.8
01:50:20,2.4760,0.4822,12.1121,2.8954,89.80,84.41,83.6,0.836,1.19,0.81,8.4,11.3,-2.9
01:50:40,2.4840,0.5064,12.1190,2.8982,89.85,84.49,88.0,0.88,1.26,0.82,8.8,12.0,-3.2
01:51:00,2.4850,0.5105,12.1260,2.9010,89.90,84.58,88.8,0.888,1.27,0.82,8.9,12.1,-3.2
01:51:20,2.4880,0.5202,12.1332,2.9039,89.95,84.66,89.8,0.898,1.29,0.82,9.0,12.3,-3.3
01:51:40,2.4910,0.5294,12.1405,2.9068,90.01,84.75,91.4,0.914,1.32,0.83,9.1,12.6,-3.5
01:52:00,2.4950,0.5414,12.1479,2.9098,90.06,84.83,92.6,0.926,1.35,0.83,9.3,12.9,-3.6
01:52:20,2.5470,0.7114,12.1569,2.9133,90.13,84.94,114.8,1.148,1.81,0.9,11.5,17.2,-5.7
01:52:40,2.7020,1.2447,12.1735,2.9195,90.25,85.12,211,2.11,3.36,0.91,21.1,32.0,-10.9
01:53:00,2.8410,1.4942,12.1967,2.9278,90.42,85.36,287,2.87,4.25,0.85,28.7,40.5,-11.8
01:53:20,2.8710,1.5125,12.2205,2.9361,90.60,85.60,290,2.9,4.34,0.86,29.0,41.3,-12.3
01:53:40,2.9980,1.5779,12.2462,2.9448,90.79,85.85,313,3.13,4.73,0.86,31.3,45.0,-13.7
01:54:00,2.7320,1.4154,12.2697,2.9530,90.97,86.09,277,2.77,3.87,0.8,27.7,36.9,-9.2
01:54:20,2.5700,1.0175,12.2860,2.9593,91.09,86.28,188.5,1.885,2.61,0.79,18.9,24.9,-6.0
01:54:40,2.5210,0.8601,12.2984,2.9642,91.18,86.42,151.2,1.512,2.17,0.82,15.1,20.7,-5.6
01:55:00,2.5340,0.8998,12.3108,2.9691,91.27,86.56,155.5,1.555,2.28,0.84,15.6,21.7,-6.1
01:55:20,2.5520,0.9649,12.3243,2.9744,91.37,86.72,168.5,1.685,2.46,0.83,16.9,23.4,-6.5
01:55:40,2.5590,0.9921,12.3383,2.9799,91.47,86.88,173.7,1.737,2.54,0.84,17.4,24.2,-6.8
01:56:00,2.5930,1.1147,12.3538,2.9859,91.59,87.05,196.1,1.961,2.89,0.84,19.6,27.5,-7.9
01:56:20,5.1480,0.1514,12.3641,2.9894,91.67,87.15,198.5,1.985,0.78,0.22,19.9,7.4,12.5
01:56:40,2.6340,1.0998,12.3722,2.9925,91.73,87.24,199.5,1.995,2.9,0.83,20.0,27.6,-7.6
01:57:00,2.6650,1.2064,12.3896,2.9990,91.85,87.43,222,2.22,3.22,0.83,22.2,30.7,-8.5
01:57:20,2.6630,1.2224,12.4075,3.0058,91.99,87.63,224,2.24,3.26,0.83,22.4,31.0,-8.6
01:57:40,2.6420,1.1881,12.4252,3.0124,92.12,87.82,221,2.21,3.14,0.81,22.1,29.9,-7.8
01:58:00,2.6310,1.1756,12.4424,3.0190,92.25,88.02,215,2.15,3.09,0.82,21.5,29.4,-7.9
01:58:20,2.6670,1.2818,12.4607,3.0259,92.38,88.22,231,2.31,3.42,0.85,23.1,32.6,-9.5
01:58:40,2.6990,1.3665,12.4810,3.0334,92.53,88.44,258,2.58,3.69,0.82,25.8,35.1,-9.3
01:59:00,5.2370,0.0095,12.4831,3.0338,92.55,88.45,265,2.65,0.05,0.01,26.5,0.5,26.0
01:59:20,2.7260,1.3587,12.5040,3.0415,92.70,88.67,259,2.59,3.7,0.82,25.9,35.2,-9.3
01:59:40,2.6930,1.3086,12.5238,3.0488,92.85,88.88,246,2.46,3.52,0.82,24.6,33.5,-8.9
02:00:00,2.6340,1.1741,12.5416,3.0555,92.98,89.08,220,2.2,3.09,0.8,22.0,29.4,-7.4
02:00:20,2.6000,1.0790,12.5576,3.0616,93.10,89.26,200.0,2.0,2.81,0.8,20.0,26.8,-6.8
02:00:40,2.5700,0.9956,12.5721,3.0673,93.21,89.42,181.0,1.81,2.56,0.81,18.1,24.4,-6.3
02:01:00,2.5620,0.9765,12.5860,3.0727,93.31,89.58,175.6,1.756,2.5,0.81,17.6,23.8,-6.2
02:01:20,2.5660,0.9976,12.6001,3.0782,93.42,89.74,179.0,1.79,2.56,0.82,17.9,24.4,-6.5
02:01:40,2.5760,1.0362,12.6148,3.0839,93.52,89.91,187.0,1.87,2.67,0.82,18.7,25.4,-6.7
02:02:00,2.5700,1.0264,12.6296,3.0896,93.63,90.08,186.1,1.861,2.64,0.81,18.6,25.1,-6.5
02:02:20,5.1510,0.1361,12.6391,3.0930,93.70,90.17,199.1,1.991,0.7,0.2,19.9,6.7,13.2
02:02:40,2.6300,1.0766,12.6548,3.0989,93.82,90.35,197.5,1.975,2.83,0.82,19.8,27.0,-7.2
02:03:00,2.6380,1.1225,12.6712,3.1051,93.94,90.53,207,2.07,2.96,0.82,20.7,28.2,-7.5
02:03:20,2.6320,1.1289,12.6877,3.1114,94.06,90.71,209,2.09,2.97,0.81,20.9,28.3,-7.4
02:03:40,2.6090,1.0727,12.7035,3.1174,94.18,90.89,197.0,1.97,2.8,0.81,19.7,26.7,-7.0
02:04:00,2.6090,1.0906,12.7191,3.1234,94.30,91.06,196.5,1.965,2.85,0.83,19.7,27.1,-7.4
02:04:20,2.6280,1.1727,12.7359,3.1298,94.42,91.25,212,2.12,3.08,0.83,21.2,29.3,-8.1
02:04:40,2.6150,1.1468,12.7529,3.1363,94.55,91.44,211,2.11,3.0,0.81,21.1,28.6,-7.5
02:05:00,2.4600,0.6625,12.7639,3.1407,94.63,91.57,125.2,1.252,1.63,0.74,12.5,15.5,-3.0
02:05:20,2.4490,0.6191,12.7724,3.1442,94.69,91.67,111.3,1.113,1.52,0.78,11.1,14.5,-3.4
02:05:40,2.4510,0.6154,12.7808,3.1476,94.75,91.77,110.1,1.101,1.51,0.78,11.0,14.4,-3.4
02:06:00,2.4530,0.6152,12.7892,3.1510,94.82,91.87,109.7,1.097,1.51,0.79,11.0,14.4,-3.4
02:06:20,2.4560,0.6150,12.7976,3.1544,94.88,91.97,109.6,1.096,1.51,0.79,11.0,14.4,-3.4
02:06:40,2.4590,0.6183,12.8060,3.1579,94.94,92.07,109.9,1.099,1.52,0.79,11.0,14.5,-3.5
02:07:00,2.4640,0.6259,12.8145,3.1613,95.00,92.17,111.2,1.112,1.54,0.79,11.1,14.7,-3.6
02:07:20,2.4700,0.6405,12.8233,3.1649,95.07,92.27,112.3,1.123,1.58,0.8,11.2,15.0,-3.8
02:07:40,2.4860,0.6872,12.8325,3.1686,95.14,92.38,119.3,1.193,1.71,0.82,11.9,16.3,-4.4
02:08:00,2.5200,0.7954,12.8432,3.1729,95.22,92.50,136.4,1.364,2.0,0.84,13.6,19.0,-5.4
02:08:20,2.5030,0.7437,12.8539,3.1771,95.30,92.63,132.1,1.321,1.86,0.8,13.2,17.7,-4.5
02:08:40,2.5100,0.7652,12.8645,3.1813,95.38,92.75,135.7,1.357,1.92,0.81,13.6,18.3,-4.7
02:09:00,2.4970,0.7241,12.8746,3.1854,95.45,92.87,130.0,1.3,1.81,0.8,13.0,17.2,-4.2
02:09:20,2.4820,0.6727,12.8841,3.1892,95.52,92.98,119.9,1.199,1.67,0.8,12.0,15.9,-3.9
02:09:40,2.4780,0.6587,12.8932,3.1929,95.59,93.09,117.6,1.176,1.63,0.79,11.8,15.5,-3.7
02:10:00,2.4780,0.6548,12.9022,3.1965,95.65,93.19,115.9,1.159,1.62,0.8,11.6,15.4,-3.8
02:10:20,2.4800,0.6551,12.9112,3.2001,95.72,93.30,116.8,1.168,1.62,0.79,11.7,15.4,-3.7
02:10:40,2.4820,0.6596,12.9203,3.2038,95.79,93.40,117.4,1.174,1.64,0.8,11.7,15.6,-3.9
02:11:00,2.4800,0.6493,12.9293,3.2074,95.86,93.51,116.0,1.16,1.61,0.79,11.6,15.3,-3.7
02:11:20,2.4770,0.6358,12.9381,3.2110,95.92,93.61,113.3,1.133,1.57,0.79,11.3,15.0,-3.7
02:11:40,2.4760,0.6288,12.9467,3.2145,95.99,93.72,112.3,1.123,1.56,0.79,11.2,14.9,-3.7
02:12:00,2.4770,0.6265,12.9554,3.2180,96.05,93.82,112.2,1.122,1.55,0.79,11.2,14.8,-3.6
02:12:20,2.4780,0.6267,12.9640,3.2214,96.11,93.92,112.6,1.126,1.55,0.79,11.3,14.8,-3.5
02:12:40,2.4820,0.6321,12.9727,3.2249,96.18,94.02,112.9,1.129,1.57,0.79,11.3,15.0,-3.7
02:13:00,2.4860,0.6428,12.9815,3.2285,96.24,94.12,114.7,1.147,1.6,0.8,11.5,15.2,-3.7
02:13:20,2.4970,0.6784,12.9907,3.2322,96.31,94.23,119.3,1.193,1.69,0.81,11.9,16.1,-4.2
02:13:40,2.5170,0.7421,13.0009,3.2363,96.39,94.35,131.7,1.317,1.87,0.81,13.2,17.8,-4.6
02:14:00,2.5190,0.7499,13.0114,3.2404,96.46,94.47,134.2,1.342,1.89,0.8,13.4,18.0,-4.6
02:14:20,2.5110,0.7249,13.0216,3.2445,96.54,94.59,130.3,1.303,1.82,0.8,13.0,17.3,-4.3
02:14:40,2.5060,0.7078,13.0315,3.2484,96.61,94.71,126.8,1.268,1.77,0.8,12.7,16.9,-4.2
02:15:00,2.5050,0.7046,13.0413,3.2524,96.69,94.82,125.5,1.255,1.77,0.81,12.6,16.9,-4.3
02:15:20,2.5050,0.7023,13.0511,3.2563,96.76,94.93,126.5,1.265,1.76,0.8,12.7,16.8,-4.1
02:15:40,2.5030,0.6979,13.0609,3.2601,96.83,95.05,124.7,1.247,1.75,0.8,12.5,16.7,-4.2
02:16:00,2.5000,0.6848,13.0704,3.2640,96.90,95.16,123.5,1.235,1.71,0.79,12.4,16.3,-3.9
02:16:20,2.4950,0.6678,13.0797,3.2677,96.97,95.27,120.4,1.204,1.67,0.79,12.0,15.9,-3.9
02:16:40,2.4920,0.6566,13.0889,3.2714,97.04,95.37,118.6,1.186,1.64,0.79,11.9,15.6,-3.7
02:17:00,2.4920,0.6521,13.0979,3.2750,97.11,95.48,118.1,1.181,1.63,0.79,11.8,15.5,-3.7
02:17:20,2.4920,0.6486,13.1069,3.2786,97.17,95.58,117.4,1.174,1.62,0.79,11.7,15.4,-3.7
02:17:40,2.4900,0.6411,13.1158,3.2822,97.24,95.69,116.7,1.167,1.6,0.78,11.7,15.2,-3.5
02:18:00,2.4900,0.6378,13.1246,3.2857,97.30,95.79,116.0,1.16,1.59,0.78,11.6,15.1,-3.5
02:18:20,2.4900,0.6353,13.1334,3.2893,97.37,95.90,115.8,1.158,1.58,0.78,11.6,15.0,-3.4
02:18:40,2.4910,0.6354,13.1422,3.2928,97.43,96.00,114.7,1.147,1.58,0.79,11.5,15.0,-3.5
02:19:00,2.4940,0.6431,13.1511,3.2963,97.50,96.10,115.8,1.158,1.6,0.79,11.6,15.2,-3.6
02:19:20,2.4970,0.6501,13.1601,3.2999,97.57,96.21,117.4,1.174,1.62,0.79,11.7,15.4,-3.7
02:19:40,2.4970,0.6499,13.1691,3.3036,97.63,96.31,117.9,1.179,1.62,0.79,11.8,15.4,-3.6
02:20:00,2.4970,0.6450,13.1781,3.3071,97.70,96.42,117.8,1.178,1.61,0.78,11.8,15.3,-3.5
02:20:20,2.4960,0.6381,13.1869,3.3107,97.77,96.52,116.3,1.163,1.59,0.78,11.6,15.1,-3.5
02:20:40,2.4950,0.6339,13.1957,3.3142,97.83,96.62,115.3,1.153,1.58,0.78,11.5,15.0,-3.5
02:21:00,2.4960,0.6356,13.2045,3.3178,97.90,96.73,115.8,1.158,1.59,0.78,11.6,15.1,-3.5
02:21:20,2.4980,0.6401,13.2134,3.3213,97.96,96.83,116.7,1.167,1.6,0.78,11.7,15.2,-3.5
02:21:40,2.5000,0.6434,13.2223,3.3249,98.03,96.93,117.2,1.172,1.61,0.78,11.7,15.3,-3.6
02:22:00,2.5000,0.6423,13.2313,3.3284,98.09,97.04,117.4,1.174,1.61,0.78,11.7,15.3,-3.6
02:22:20,2.4990,0.6379,13.2401,3.3320,98.16,97.14,116.6,1.166,1.59,0.78,11.7,15.1,-3.4
02:22:40,2.5000,0.6389,13.2490,3.3355,98.23,97.24,116.5,1.165,1.6,0.78,11.7,15.2,-3.5
02:23:00,2.5020,0.6452,13.2579,3.3391,98.29,97.35,117.6,1.176,1.61,0.78,11.8,15.3,-3.5
02:23:20,2.5050,0.6529,13.2670,3.3427,98.36,97.45,119.1,1.191,1.64,0.79,11.9,15.6,-3.7
02:23:40,2.5070,0.6584,13.2761,3.3464,98.43,97.56,120.2,1.202,1.65,0.78,12.0,15.7,-3.7
02:24:00,2.5070,0.6581,13.2853,3.3500,98.50,97.67,120.4,1.204,1.65,0.78,12.0,15.7,-3.7
02:24:20,2.5110,0.6688,13.2946,3.3537,98.56,97.78,122.4,1.224,1.68,0.78,12.2,16.0,-3.8
02:24:40,2.5170,0.6890,13.3041,3.3575,98.63,97.89,125.6,1.256,1.73,0.79,12.6,16.5,-3.9
02:25:00,2.5210,0.7027,13.3139,3.3614,98.71,98.00,127.9,1.279,1.77,0.79,12.8,16.9,-4.1
02:25:20,2.5240,0.7157,13.3239,3.3654,98.78,98.11,130.6,1.306,1.81,0.79,13.1,17.2,-4.1
02:25:40,2.5320,0.7433,13.3343,3.3695,98.86,98.23,135.4,1.354,1.88,0.79,13.5,17.9,-4.4
02:26:00,2.5420,0.7789,13.3451,3.3737,98.94,98.36,141.9,1.419,1.98,0.8,14.2,18.9,-4.7
02:26:20,2.5440,0.7886,13.3563,3.3781,99.02,98.49,143.9,1.439,2.01,0.8,14.4,19.1,-4.7
02:26:40,2.5440,0.7940,13.3675,3.3825,99.10,98.61,144.9,1.449,2.02,0.8,14.5,19.2,-4.7
02:27:00,2.5500,0.8179,13.3789,3.3870,99.19,98.75,149.2,1.492,2.09,0.8,14.9,19.9,-5.0
02:27:20,2.5530,0.8340,13.3907,3.3916,99.28,98.88,152.8,1.528,2.13,0.8,15.3,20.3,-5.0
02:27:40,2.5520,0.8366,13.4026,3.3963,99.36,99.02,153.3,1.533,2.14,0.8,15.3,20.4,-5.1
02:28:00,2.5440,0.8162,13.4142,3.4009,99.45,99.15,150.6,1.506,2.08,0.79,15.1,19.8,-4.7
02:28:20,2.5410,0.8112,13.4257,3.4054,99.54,99.28,149.3,1.493,2.06,0.79,14.9,19.6,-4.7
02:28:40,2.5440,0.8228,13.4373,3.4099,99.62,99.41,150.9,1.509,2.09,0.79,15.1,19.9,-4.8
02:29:00,2.5410,0.8190,13.4489,3.4145,99.71,99.55,151.2,1.512,2.08,0.79,15.1,19.8,-4.7
02:29:20,2.5350,0.7999,13.4602,3.4190,99.79,99.68,147.7,1.477,2.03,0.79,14.8,19.3,-4.5
02:29:40,2.5320,0.7936,13.4714,3.4234,99.87,99.81,146.2,1.462,2.01,0.79,14.6,19.1,-4.5
02:30:00,2.5350,0.8039,13.4826,3.4278,99.96,99.94,147.7,1.477,2.04,0.79,14.8,19.4,-4.6
02:30:20,2.5290,0.7843,13.4938,3.4322,100.04,100.06,147.4,1.474,1.98,0.77,14.7,18.9,-4.2