File: output/3/choetech-2.csv
Time,Voltage(V),Current(A),Energy(Wh),Capacity(Ah),Energy Proportion(%),Capacity Proportion(%),Irradiance(W/m2),Power(W),Power Score,Watts/oz,cW/oz,Sun Score,Irradiance/100,Efficiency(%)
00:00:00,0.0000,0.0000,0.0000,0.0000,0.00,0.00,893.0,0.0,0.0,0.0,0.0,89.3,8.93,0.0
00:00:10,5.1540,0.1023,0.0015,0.0003,0.02,0.01,889.0,0.53,3.5,0.03,0.3,88.9,8.89,0.05
00:00:20,4.5810,1.9954,0.0269,0.0058,0.28,0.27,895.0,9.14,60.9,0.54,5.4,89.5,8.95,0.84
00:00:30,4.5790,1.9948,0.0522,0.0114,0.54,0.53,892.0,9.13,60.9,0.54,5.4,89.2,8.92,0.84
00:00:40,4.5840,1.9934,0.0776,0.0169,0.81,0.79,899.0,9.14,60.9,0.54,5.4,89.9,8.99,0.83
00:00:50,4.5920,1.9926,0.1030,0.0224,1.07,1.05,897.0,9.15,61.0,0.54,5.4,89.7,8.97,0.84
00:01:00,4.5910,1.9929,0.1284,0.0280,1.34,1.31,900.0,9.15,61.0,0.54,5.4,90.0,9.0,0.83
00:01:10,4.5940,1.9925,0.1539,0.0335,1.60,1.57,898.0,9.15,61.0,0.54,5.4,89.8,8.98,0.84
00:01:20,4.5900,1.9919,0.1793,0.0390,1.87,1.83,902.0,9.14,60.9,0.54,5.4,90.2,9.02,0.83
00:01:30,4.5880,1.9919,0.2047,0.0446,2.13,2.09,898.0,9.14,60.9,0.54,5.4,89.8,8.98,0.83
00:01:40,4.5870,1.9913,0.2300,0.0501,2.39,2.35,895.0,9.13,60.9,0.54,5.4,89.5,8.95,0.84
00:01:50,4.5870,1.9912,0.2554,0.0556,2.66,2.61,898.0,9.13,60.9,0.54,5.4,89.8,8.98,0.83
00:02:00,4.5860,1.9903,0.2807,0.0612,2.92,2.87,901.0,9.13,60.9,0.54,5.4,90.1,9.01,0.83
00:02:10,4.5850,1.9907,0.3061,0.0667,3.19,3.13,894.0,9.13,60.9,0.54,5.4,89.4,8.94,0.84
00:02:20,4.5840,1.9904,0.3314,0.0722,3.45,3.39,895.0,9.12,60.8,0.54,5.4,89.5,8.95,0.84
00:02:30,4.5830,1.9911,0.3568,0.0778,3.71,3.65,895.0,9.13,60.9,0.54,5.4,89.5,8.95,0.84
00:02:40,4.5810,1.9906,0.3821,0.0833,3.98,3.91,894.0,9.12,60.8,0.54,5.4,89.4,8.94,0.84
00:02:50,4.5800,1.9897,0.4074,0.0888,4.24,4.17,890.0,9.11,60.7,0.54,5.4,89.0,8.9,0.84
00:03:00,4.5790,1.9901,0.4328,0.0943,4.50,4.43,884.0,9.11,60.7,0.54,5.4,88.4,8.84,0.84
00:03:10,4.5780,1.9903,0.4581,0.0999,4.77,4.69,882.0,9.11,60.7,0.54,5.4,88.2,8.82,0.85
00:03:20,4.5770,1.9906,0.4834,0.1054,5.03,4.95,880.0,9.11,60.7,0.54,5.4,88.0,8.8,0.85
00:03:30,4.5760,1.9905,0.5087,0.1109,5.29,5.21,866.0,9.11,60.7,0.54,5.4,86.6,8.66,0.86
00:03:40,3.9200,1.9743,0.5302,0.1164,5.52,5.47,697.0,7.74,51.6,0.46,4.6,69.7,6.97,0.91
00:03:50,4.5750,1.9904,0.5555,0.1219,5.78,5.73,809.0,9.11,60.7,0.54,5.4,80.9,8.09,0.92
00:04:00,4.5740,1.9900,0.5807,0.1275,6.05,5.99,886.0,9.1,60.7,0.54,5.4,88.6,8.86,0.84
00:04:10,4.5740,1.9890,0.6060,0.1330,6.31,6.25,894.0,9.1,60.7,0.54,5.4,89.4,8.94,0.83
00:04:20,4.5730,1.9896,0.6313,0.1385,6.57,6.51,897.0,9.1,60.7,0.54,5.4,89.7,8.97,0.83
00:04:30,4.5720,1.9902,0.6566,0.1441,6.83,6.77,895.0,9.1,60.7,0.54,5.4,89.5,8.95,0.83
00:04:40,4.5710,1.9886,0.6818,0.1496,7.10,7.03,902.0,9.09,60.6,0.54,5.4,90.2,9.02,0.83
00:04:50,4.5700,1.9900,0.7071,0.1551,7.36,7.29,907.0,9.09,60.6,0.54,5.4,90.7,9.07,0.82
00:05:00,4.5690,1.9889,0.7323,0.1606,7.62,7.55,908.0,9.09,60.6,0.54,5.4,90.8,9.08,0.82
00:05:10,3.7100,1.8605,0.7515,0.1658,7.82,7.79,684.0,6.9,46.0,0.41,4.1,68.4,6.84,0.83
00:05:20,3.8110,1.9150,0.7718,0.1711,8.03,8.04,678.0,7.3,48.7,0.43,4.3,67.8,6.78,0.88
00:05:30,4.5700,1.9901,0.7970,0.1766,8.30,8.30,769.0,9.09,60.6,0.54,5.4,76.9,7.69,0.97
00:05:40,4.2870,1.9900,0.8207,0.1822,8.54,8.56,611.0,8.53,56.9,0.5,5.0,61.1,6.11,1.14
00:05:50,2.9070,1.3677,0.8318,0.1860,8.66,8.74,675.0,3.98,26.5,0.23,2.3,67.5,6.75,0.48
00:06:00,4.5760,1.9889,0.8571,0.1915,8.92,9.00,570.0,9.1,60.7,0.54,5.4,57.0,5.7,1.31
00:06:10,3.0260,1.5658,0.8702,0.1958,9.06,9.20,750.0,4.74,31.6,0.28,2.8,75.0,7.5,0.52
00:06:20,2.6970,0.8722,0.8768,0.1983,9.13,9.32,319.0,2.35,15.7,0.14,1.4,31.9,3.19,0.6
00:06:30,2.8600,1.4399,0.8882,0.2023,9.25,9.50,349.0,4.12,27.5,0.24,2.4,34.9,3.49,0.97
00:06:40,2.7050,0.9415,0.8953,0.2049,9.32,9.63,383.0,2.55,17.0,0.15,1.5,38.3,3.83,0.55
00:06:50,4.5780,1.9887,0.9206,0.2104,9.58,9.89,376.0,9.1,60.7,0.54,5.4,37.6,3.76,1.98
00:07:00,4.5680,1.9879,0.9458,0.2159,9.84,10.15,879.0,9.08,60.5,0.54,5.4,87.9,8.79,0.85
00:07:10,2.7630,0.9853,0.9533,0.2187,9.92,10.27,584.0,2.72,18.1,0.16,1.6,58.4,5.84,0.38
00:07:20,3.0580,1.5746,0.9667,0.2230,10.06,10.48,234.0,4.82,32.1,0.28,2.8,23.4,2.34,1.69
00:07:30,4.5680,1.9883,0.9919,0.2286,10.33,10.74,855.0,9.08,60.5,0.54,5.4,85.5,8.55,0.87
00:07:40,4.5660,1.9910,1.0172,0.2341,10.59,11.00,852.0,9.09,60.6,0.54,5.4,85.2,8.52,0.87
00:07:50,4.5640,1.9890,1.0424,0.2396,10.85,11.26,821.0,9.08,60.5,0.54,5.4,82.1,8.21,0.91
00:08:00,4.5640,1.9896,1.0676,0.2451,11.11,11.52,861.0,9.08,60.5,0.54,5.4,86.1,8.61,0.86
00:08:10,4.5640,1.9890,1.0929,0.2507,11.38,11.78,860.0,9.08,60.5,0.54,5.4,86.0,8.6,0.87
00:08:20,4.5620,1.9891,1.1181,0.2562,11.64,12.04,844.0,9.07,60.5,0.53,5.3,84.4,8.44,0.88
00:08:30,4.5620,1.9891,1.1433,0.2617,11.90,12.30,864.0,9.07,60.5,0.53,5.3,86.4,8.64,0.86
00:08:40,4.5610,1.9891,1.1685,0.2672,12.16,12.56,864.0,9.07,60.5,0.53,5.3,86.4,8.64,0.86
00:08:50,4.5600,1.9893,1.1937,0.2728,12.43,12.82,864.0,9.07,60.5,0.53,5.3,86.4,8.64,0.86
00:09:00,4.5600,1.9899,1.2189,0.2783,12.69,13.08,860.0,9.07,60.5,0.53,5.3,86.0,8.6,0.86
00:09:10,4.5590,1.9890,1.2441,0.2838,12.95,13.34,861.0,9.07,60.5,0.53,5.3,86.1,8.61,0.86
00:09:20,4.5590,1.9890,1.2692,0.2893,13.21,13.59,862.0,9.07,60.5,0.53,5.3,86.2,8.62,0.86
00:09:30,4.5590,1.9894,1.2944,0.2949,13.47,13.85,863.0,9.07,60.5,0.53,5.3,86.3,8.63,0.86
00:09:40,4.5580,1.9890,1.3196,0.3004,13.74,14.11,864.0,9.07,60.5,0.53,5.3,86.4,8.64,0.86
00:09:50,4.5570,1.9893,1.3448,0.3059,14.00,14.37,864.0,9.07,60.5,0.53,5.3,86.4,8.64,0.86
00:10:00,4.5560,1.9893,1.3700,0.3115,14.26,14.63,864.0,9.06,60.4,0.53,5.3,86.4,8.64,0.86
00:10:10,4.5560,1.9888,1.3952,0.3170,14.52,14.89,865.0,9.06,60.4,0.53,5.3,86.5,8.65,0.86
00:10:20,4.5550,1.9892,1.4203,0.3225,14.78,15.15,865.0,9.06,60.4,0.53,5.3,86.5,8.65,0.86
00:10:30,4.5550,1.9888,1.4455,0.3280,15.05,15.41,868.0,9.06,60.4,0.53,5.3,86.8,8.68,0.86
00:10:40,4.5550,1.9891,1.4707,0.3335,15.31,15.67,865.0,9.06,60.4,0.53,5.3,86.5,8.65,0.86
00:10:50,4.5560,1.9891,1.4958,0.3391,15.57,15.93,864.0,9.06,60.4,0.53,5.3,86.4,8.64,0.86
00:11:00,4.5560,1.9893,1.5210,0.3446,15.83,16.19,865.0,9.06,60.4,0.53,5.3,86.5,8.65,0.86
00:11:10,4.5550,1.9894,1.5462,0.3501,16.09,16.45,866.0,9.06,60.4,0.53,5.3,86.6,8.66,0.86
00:11:20,4.5550,1.9890,1.5713,0.3557,16.36,16.71,865.0,9.06,60.4,0.53,5.3,86.5,8.65,0.86
00:11:30,4.5540,1.9893,1.5965,0.3612,16.62,16.97,864.0,9.06,60.4,0.53,5.3,86.4,8.64,0.86
00:11:40,4.5540,1.9885,1.6217,0.3667,16.88,17.23,864.0,9.06,60.4,0.53,5.3,86.4,8.64,0.86
00:11:50,4.5530,1.9894,1.6468,0.3722,17.14,17.49,864.0,9.06,60.4,0.53,5.3,86.4,8.64,0.86
00:12:00,4.5530,1.9886,1.6720,0.3778,17.40,17.75,865.0,9.05,60.3,0.53,5.3,86.5,8.65,0.86
00:12:10,4.5520,1.9889,1.6971,0.3833,17.67,18.01,866.0,9.05,60.3,0.53,5.3,86.6,8.66,0.86
00:12:20,4.5520,1.9890,1.7223,0.3888,17.93,18.27,865.0,9.05,60.3,0.53,5.3,86.5,8.65,0.86
00:12:30,4.5520,1.9894,1.7474,0.3943,18.19,18.53,867.0,9.06,60.4,0.53,5.3,86.7,8.67,0.86
00:12:40,4.5520,1.9891,1.7726,0.3999,18.45,18.79,867.0,9.05,60.3,0.53,5.3,86.7,8.67,0.86
00:12:50,4.5510,1.9892,1.7977,0.4054,18.71,19.05,868.0,9.05,60.3,0.53,5.3,86.8,8.68,0.85
00:13:00,4.5510,1.9891,1.8229,0.4109,18.97,19.31,868.0,9.05,60.3,0.53,5.3,86.8,8.68,0.85
00:13:10,4.5510,1.9887,1.8480,0.4164,19.24,19.57,868.0,9.05,60.3,0.53,5.3,86.8,8.68,0.85
00:13:20,4.5510,1.9888,1.8731,0.4220,19.50,19.83,869.0,9.05,60.3,0.53,5.3,86.9,8.69,0.85
00:13:30,4.5500,1.9887,1.8983,0.4275,19.76,20.08,869.0,9.05,60.3,0.53,5.3,86.9,8.69,0.85
00:13:40,4.5500,1.9884,1.9234,0.4330,20.02,20.34,868.0,9.05,60.3,0.53,5.3,86.8,8.68,0.85
00:13:50,4.5500,1.9885,1.9485,0.4385,20.28,20.60,868.0,9.05,60.3,0.53,5.3,86.8,8.68,0.85
00:14:00,4.5490,1.9890,1.9737,0.4440,20.54,20.86,870.0,9.05,60.3,0.53,5.3,87.0,8.7,0.85
00:14:10,4.5490,1.9885,1.9988,0.4496,20.81,21.12,868.0,9.05,60.3,0.53,5.3,86.8,8.68,0.85
00:14:20,4.5480,1.9888,2.0239,0.4551,21.07,21.38,868.0,9.05,60.3,0.53,5.3,86.8,8.68,0.85
00:14:30,4.5480,1.9884,2.0490,0.4606,21.33,21.64,871.0,9.04,60.3,0.53,5.3,87.1,8.71,0.85
00:14:40,4.5470,1.9884,2.0742,0.4661,21.59,21.90,872.0,9.04,60.3,0.53,5.3,87.2,8.72,0.85
00:14:50,4.5470,1.9885,2.0993,0.4717,21.85,22.16,868.0,9.04,60.3,0.53,5.3,86.8,8.68,0.85
00:15:00,4.5460,1.9884,2.1244,0.4772,22.11,22.42,870.0,9.04,60.3,0.53,5.3,87.0,8.7,0.85
00:15:10,4.5460,1.9886,2.1495,0.4827,22.37,22.68,867.0,9.04,60.3,0.53,5.3,86.7,8.67,0.85
00:15:20,4.5450,1.9886,2.1746,0.4882,22.64,22.94,869.0,9.04,60.3,0.53,5.3,86.9,8.69,0.85
00:15:30,4.5450,1.9890,2.1997,0.4938,22.90,23.20,867.0,9.04,60.3,0.53,5.3,86.7,8.67,0.85
00:15:40,4.5460,1.9889,2.2248,0.4993,23.16,23.46,864.0,9.04,60.3,0.53,5.3,86.4,8.64,0.86
00:15:50,4.5460,1.9884,2.2499,0.5048,23.42,23.72,865.0,9.04,60.3,0.53,5.3,86.5,8.65,0.86
00:16:00,4.5460,1.9878,2.2750,0.5103,23.68,23.98,867.0,9.04,60.3,0.53,5.3,86.7,8.67,0.85
00:16:10,4.5450,1.9888,2.3002,0.5159,23.94,24.24,867.0,9.04,60.3,0.53,5.3,86.7,8.67,0.85
00:16:20,4.5450,1.9882,2.3253,0.5214,24.20,24.50,866.0,9.04,60.3,0.53,5.3,86.6,8.66,0.86
00:16:30,4.5450,1.9879,2.3504,0.5269,24.47,24.76,864.0,9.04,60.3,0.53,5.3,86.4,8.64,0.86
00:16:40,4.5450,1.9882,2.3755,0.5324,24.73,25.02,866.0,9.04,60.3,0.53,5.3,86.6,8.66,0.86
00:16:50,4.5440,1.9888,2.4006,0.5379,24.99,25.28,864.0,9.04,60.3,0.53,5.3,86.4,8.64,0.86
00:17:00,4.5440,1.9883,2.4257,0.5435,25.25,25.54,866.0,9.03,60.2,0.53,5.3,86.6,8.66,0.85
00:17:10,4.5430,1.9884,2.4507,0.5490,25.51,25.79,867.0,9.03,60.2,0.53,5.3,86.7,8.67,0.85
00:17:20,4.5430,1.9878,2.4758,0.5545,25.77,26.05,866.0,9.03,60.2,0.53,5.3,86.6,8.66,0.85
00:17:30,4.5430,1.9883,2.5009,0.5600,26.03,26.31,863.0,9.03,60.2,0.53,5.3,86.3,8.63,0.86
00:17:40,4.5440,1.9878,2.5260,0.5656,26.29,26.57,862.0,9.03,60.2,0.53,5.3,86.2,8.62,0.86
00:17:50,4.5430,1.9883,2.5511,0.5711,26.56,26.83,862.0,9.03,60.2,0.53,5.3,86.2,8.62,0.86
00:18:00,4.5430,1.9882,2.5762,0.5766,26.82,27.09,863.0,9.03,60.2,0.53,5.3,86.3,8.63,0.86
00:18:10,4.5430,1.9888,2.6013,0.5821,27.08,27.35,866.0,9.04,60.3,0.53,5.3,86.6,8.66,0.86
00:18:20,4.5430,1.9878,2.6264,0.5877,27.34,27.61,866.0,9.03,60.2,0.53,5.3,86.6,8.66,0.85
00:18:30,4.5430,1.9882,2.6515,0.5932,27.60,27.87,864.0,9.03,60.2,0.53,5.3,86.4,8.64,0.86
00:18:40,4.5430,1.9883,2.6766,0.5987,27.86,28.13,865.0,9.03,60.2,0.53,5.3,86.5,8.65,0.86
00:18:50,4.5420,1.9884,2.7016,0.6042,28.12,28.39,866.0,9.03,60.2,0.53,5.3,86.6,8.66,0.85
00:19:00,4.5420,1.9885,2.7267,0.6097,28.38,28.65,865.0,9.03,60.2,0.53,5.3,86.5,8.65,0.86
00:19:10,4.5420,1.9889,2.7518,0.6153,28.64,28.91,863.0,9.03,60.2,0.53,5.3,86.3,8.63,0.86
00:19:20,4.5420,1.9884,2.7769,0.6208,28.91,29.17,862.0,9.03,60.2,0.53,5.3,86.2,8.62,0.86
00:19:30,4.5410,1.9887,2.8020,0.6263,29.17,29.43,863.0,9.03,60.2,0.53,5.3,86.3,8.63,0.86
00:19:40,4.5410,1.9887,2.8271,0.6318,29.43,29.69,865.0,9.03,60.2,0.53,5.3,86.5,8.65,0.86
00:19:50,4.5410,1.9885,2.8522,0.6374,29.69,29.95,863.0,9.03,60.2,0.53,5.3,86.3,8.63,0.86
00:20:00,4.5410,1.9882,2.8772,0.6429,29.95,30.21,864.0,9.03,60.2,0.53,5.3,86.4,8.64,0.86
00:20:10,4.5410,1.9883,2.9023,0.6484,30.21,30.47,862.0,9.03,60.2,0.53,5.3,86.2,8.62,0.86
00:20:20,4.5400,1.9885,2.9274,0.6539,30.47,30.73,863.0,9.03,60.2,0.53,5.3,86.3,8.63,0.86
00:20:30,4.5400,1.9885,2.9525,0.6595,30.73,30.98,866.0,9.03,60.2,0.53,5.3,86.6,8.66,0.85
00:20:40,4.5390,1.9884,2.9775,0.6650,30.99,31.24,865.0,9.03,60.2,0.53,5.3,86.5,8.65,0.86
00:20:50,4.5390,1.9883,3.0026,0.6705,31.26,31.50,866.0,9.02,60.1,0.53,5.3,86.6,8.66,0.85
00:21:00,4.5390,1.9887,3.0277,0.6760,31.52,31.76,866.0,9.03,60.2,0.53,5.3,86.6,8.66,0.85
00:21:10,4.5380,1.9887,3.0528,0.6816,31.78,32.02,868.0,9.02,60.1,0.53,5.3,86.8,8.68,0.85
00:21:20,4.5380,1.9887,3.0778,0.6871,32.04,32.28,869.0,9.02,60.1,0.53,5.3,86.9,8.69,0.85
00:21:30,4.5370,1.9886,3.1029,0.6926,32.30,32.54,866.0,9.02,60.1,0.53,5.3,86.6,8.66,0.85
00:21:40,4.5370,1.9884,3.1280,0.6981,32.56,32.80,866.0,9.02,60.1,0.53,5.3,86.6,8.66,0.85
00:21:50,4.5360,1.9890,3.1530,0.7037,32.82,33.06,867.0,9.02,60.1,0.53,5.3,86.7,8.67,0.85
00:22:00,4.5360,1.9888,3.1781,0.7092,33.08,33.32,867.0,9.02,60.1,0.53,5.3,86.7,8.67,0.85
00:22:10,4.5350,1.9888,3.2031,0.7147,33.34,33.58,866.0,9.02,60.1,0.53,5.3,86.6,8.66,0.85
00:22:20,4.5350,1.9881,3.2282,0.7202,33.60,33.84,866.0,9.02,60.1,0.53,5.3,86.6,8.66,0.85
00:22:30,4.5350,1.9885,3.2532,0.7257,33.86,34.10,864.0,9.02,60.1,0.53,5.3,86.4,8.64,0.86
00:22:40,4.5350,1.9883,3.2783,0.7313,34.12,34.36,867.0,9.02,60.1,0.53,5.3,86.7,8.67,0.85
00:22:50,4.5340,1.9886,3.3033,0.7368,34.39,34.62,861.0,9.02,60.1,0.53,5.3,86.1,8.61,0.86
00:23:00,4.5340,1.9888,3.3284,0.7423,34.65,34.88,862.0,9.02,60.1,0.53,5.3,86.2,8.62,0.86
00:23:10,4.5340,1.9888,3.3534,0.7478,34.91,35.14,860.0,9.02,60.1,0.53,5.3,86.0,8.6,0.86
00:23:20,4.5340,1.9885,3.3785,0.7534,35.17,35.40,860.0,9.02,60.1,0.53,5.3,86.0,8.6,0.86
00:23:30,4.5340,1.9884,3.4035,0.7589,35.43,35.66,861.0,9.02,60.1,0.53,5.3,86.1,8.61,0.86
00:23:40,4.5330,1.9886,3.4285,0.7644,35.69,35.92,858.0,9.01,60.1,0.53,5.3,85.8,8.58,0.86
00:23:50,4.5320,1.9882,3.4536,0.7699,35.95,36.18,857.0,9.01,60.1,0.53,5.3,85.7,8.57,0.86
00:24:00,4.5320,1.9883,3.4786,0.7755,36.21,36.43,859.0,9.01,60.1,0.53,5.3,85.9,8.59,0.86
00:24:10,4.5320,1.9881,3.5036,0.7810,36.47,36.69,855.0,9.01,60.1,0.53,5.3,85.5,8.55,0.86
00:24:20,4.5330,1.9884,3.5287,0.7865,36.73,36.95,854.0,9.01,60.1,0.53,5.3,85.4,8.54,0.86
00:24:30,4.5320,1.9885,3.5537,0.7920,36.99,37.21,853.0,9.01,60.1,0.53,5.3,85.3,8.53,0.87
00:24:40,4.5330,1.9879,3.5787,0.7975,37.25,37.47,855.0,9.01,60.1,0.53,5.3,85.5,8.55,0.86
00:24:50,4.5330,1.9880,3.6038,0.8031,37.51,37.73,851.0,9.01,60.1,0.53,5.3,85.1,8.51,0.87
00:25:00,4.5320,1.9881,3.6288,0.8086,37.77,37.99,848.0,9.01,60.1,0.53,5.3,84.8,8.48,0.87
00:25:10,4.5320,1.9886,3.6538,0.8141,38.03,38.25,850.0,9.01,60.1,0.53,5.3,85.0,8.5,0.87
00:25:20,4.5320,1.9885,3.6788,0.8196,38.29,38.51,849.0,9.01,60.1,0.53,5.3,84.9,8.49,0.87
00:25:30,4.5320,1.9881,3.7039,0.8252,38.55,38.77,846.0,9.01,60.1,0.53,5.3,84.6,8.46,0.87
00:25:40,4.5320,1.9887,3.7289,0.8307,38.82,39.03,848.0,9.01,60.1,0.53,5.3,84.8,8.48,0.87
00:25:50,4.5320,1.9883,3.7539,0.8362,39.08,39.29,847.0,9.01,60.1,0.53,5.3,84.7,8.47,0.87
00:26:00,4.5320,1.9882,3.7790,0.8417,39.34,39.55,846.0,9.01,60.1,0.53,5.3,84.6,8.46,0.87
00:26:10,4.5310,1.9890,3.8040,0.8473,39.60,39.81,846.0,9.01,60.1,0.53,5.3,84.6,8.46,0.87
00:26:20,4.5320,1.9884,3.8290,0.8528,39.86,40.07,845.0,9.01,60.1,0.53,5.3,84.5,8.45,0.87
00:26:30,4.5310,1.9888,3.8541,0.8583,40.12,40.33,846.0,9.01,60.1,0.53,5.3,84.6,8.46,0.87
00:26:40,4.5310,1.9882,3.8791,0.8638,40.38,40.59,844.0,9.01,60.1,0.53,5.3,84.4,8.44,0.88
00:26:50,4.5320,1.9881,3.9041,0.8694,40.64,40.85,845.0,9.01,60.1,0.53,5.3,84.5,8.45,0.87
00:27:00,4.5320,1.9882,3.9292,0.8749,40.90,41.11,845.0,9.01,60.1,0.53,5.3,84.5,8.45,0.87
00:27:10,4.5320,1.9881,3.9542,0.8804,41.16,41.37,844.0,9.01,60.1,0.53,5.3,84.4,8.44,0.88
00:27:20,4.5320,1.9881,3.9792,0.8859,41.42,41.62,844.0,9.01,60.1,0.53,5.3,84.4,8.44,0.88
00:27:30,4.5320,1.9888,4.0042,0.8914,41.68,41.88,843.0,9.01,60.1,0.53,5.3,84.3,8.43,0.88
00:27:40,4.5320,1.9885,4.0293,0.8970,41.94,42.14,844.0,9.01,60.1,0.53,5.3,84.4,8.44,0.88
00:27:50,4.5320,1.9880,4.0543,0.9025,42.20,42.40,845.0,9.01,60.1,0.53,5.3,84.5,8.45,0.87
00:28:00,4.5320,1.9882,4.0793,0.9080,42.46,42.66,842.0,9.01,60.1,0.53,5.3,84.2,8.42,0.88
00:28:10,4.5330,1.9884,4.1044,0.9135,42.72,42.92,842.0,9.01,60.1,0.53,5.3,84.2,8.42,0.88
00:28:20,4.5340,1.9885,4.1294,0.9191,42.98,43.18,842.0,9.02,60.1,0.53,5.3,84.2,8.42,0.88
00:28:30,4.5340,1.9889,4.1545,0.9246,43.25,43.44,843.0,9.02,60.1,0.53,5.3,84.3,8.43,0.88
00:28:40,4.5340,1.9885,4.1795,0.9301,43.51,43.70,843.0,9.02,60.1,0.53,5.3,84.3,8.43,0.88
00:28:50,4.5340,1.9890,4.2046,0.9356,43.77,43.96,842.0,9.02,60.1,0.53,5.3,84.2,8.42,0.88
00:29:00,4.5340,1.9887,4.2296,0.9412,44.03,44.22,844.0,9.02,60.1,0.53,5.3,84.4,8.44,0.88
00:29:10,4.5340,1.9888,4.2547,0.9467,44.29,44.48,842.0,9.02,60.1,0.53,5.3,84.2,8.42,0.88
00:29:20,4.5330,1.9886,4.2797,0.9522,44.55,44.74,844.0,9.01,60.1,0.53,5.3,84.4,8.44,0.88
00:29:30,4.5330,1.9883,4.3047,0.9577,44.81,45.00,840.0,9.01,60.1,0.53,5.3,84.0,8.4,0.88
00:29:40,4.5330,1.9882,4.3298,0.9633,45.07,45.26,841.0,9.01,60.1,0.53,5.3,84.1,8.41,0.88
00:29:50,4.5320,1.9887,4.3548,0.9688,45.33,45.52,839.0,9.01,60.1,0.53,5.3,83.9,8.39,0.88
00:30:00,4.5320,1.9887,4.3798,0.9743,45.59,45.78,838.0,9.01,60.1,0.53,5.3,83.8,8.38,0.88
00:30:10,4.5320,1.9883,4.4049,0.9798,45.85,46.04,840.0,9.01,60.1,0.53,5.3,84.0,8.4,0.88
00:30:20,4.5320,1.9882,4.4299,0.9853,46.11,46.30,841.0,9.01,60.1,0.53,5.3,84.1,8.41,0.88
00:30:30,4.5320,1.9885,4.4549,0.9909,46.37,46.56,838.0,9.01,60.1,0.53,5.3,83.8,8.38,0.88
00:30:40,4.5310,1.9882,4.4799,0.9964,46.63,46.82,836.0,9.01,60.1,0.53,5.3,83.6,8.36,0.88
00:30:50,4.5310,1.9883,4.5050,1.0019,46.89,47.08,838.0,9.01,60.1,0.53,5.3,83.8,8.38,0.88
00:31:00,4.5300,1.9888,4.5300,1.0074,47.15,47.33,837.0,9.01,60.1,0.53,5.3,83.7,8.37,0.88
00:31:10,4.5300,1.9886,4.5550,1.0130,47.41,47.59,838.0,9.01,60.1,0.53,5.3,83.8,8.38,0.88
00:31:20,4.5300,1.9884,4.5800,1.0185,47.68,47.85,837.0,9.01,60.1,0.53,5.3,83.7,8.37,0.88
00:31:30,4.5300,1.9893,4.6051,1.0240,47.94,48.11,838.0,9.01,60.1,0.53,5.3,83.8,8.38,0.88
00:31:40,4.5300,1.9881,4.6301,1.0295,48.20,48.37,840.0,9.01,60.1,0.53,5.3,84.0,8.4,0.88
00:31:50,4.5300,1.9886,4.6551,1.0351,48.46,48.63,840.0,9.01,60.1,0.53,5.3,84.0,8.4,0.88
00:32:00,4.5300,1.9886,4.6801,1.0406,48.72,48.89,841.0,9.01,60.1,0.53,5.3,84.1,8.41,0.88
00:32:10,4.5300,1.9882,4.7052,1.0461,48.98,49.15,840.0,9.01,60.1,0.53,5.3,84.0,8.4,0.88
00:32:20,4.5290,1.9883,4.7302,1.0516,49.24,49.41,841.0,9.01,60.1,0.53,5.3,84.1,8.41,0.88
00:32:30,4.5290,1.9880,4.7552,1.0572,49.50,49.67,840.0,9.0,60.0,0.53,5.3,84.0,8.4,0.88
00:32:40,4.5290,1.9882,4.7802,1.0627,49.76,49.93,842.0,9.0,60.0,0.53,5.3,84.2,8.42,0.88
00:32:50,4.5290,1.9880,4.8052,1.0682,50.02,50.19,842.0,9.0,60.0,0.53,5.3,84.2,8.42,0.88
00:33:00,4.5280,1.9882,4.8302,1.0737,50.28,50.45,844.0,9.0,60.0,0.53,5.3,84.4,8.44,0.87
00:33:10,4.5290,1.9881,4.8552,1.0792,50.54,50.71,843.0,9.0,60.0,0.53,5.3,84.3,8.43,0.88
00:33:20,4.5280,1.9882,4.8802,1.0848,50.80,50.97,845.0,9.0,60.0,0.53,5.3,84.5,8.45,0.87
00:33:30,4.5280,1.9885,4.9052,1.0903,51.06,51.23,847.0,9.0,60.0,0.53,5.3,84.7,8.47,0.87
00:33:40,4.5280,1.9878,4.9302,1.0958,51.32,51.49,851.0,9.0,60.0,0.53,5.3,85.1,8.51,0.87
00:33:50,4.5270,1.9877,4.9552,1.1013,51.58,51.75,850.0,9.0,60.0,0.53,5.3,85.0,8.5,0.87
00:34:00,4.5270,1.9879,4.9802,1.1069,51.84,52.01,850.0,9.0,60.0,0.53,5.3,85.0,8.5,0.87
00:34:10,4.5270,1.9879,5.0052,1.1124,52.10,52.26,853.0,9.0,60.0,0.53,5.3,85.3,8.53,0.86
00:34:20,4.5270,1.9876,5.0302,1.1179,52.36,52.52,855.0,9.0,60.0,0.53,5.3,85.5,8.55,0.86
00:34:30,4.5270,1.9877,5.0552,1.1234,52.62,52.78,859.0,9.0,60.0,0.53,5.3,85.9,8.59,0.86
00:34:40,4.5270,1.9876,5.0802,1.1289,52.88,53.04,862.0,9.0,60.0,0.53,5.3,86.2,8.62,0.86
00:34:50,4.5270,1.9877,5.1052,1.1345,53.14,53.30,862.0,9.0,60.0,0.53,5.3,86.2,8.62,0.86
00:35:00,4.5260,1.9877,5.1302,1.1400,53.40,53.56,863.0,9.0,60.0,0.53,5.3,86.3,8.63,0.85
00:35:10,4.5260,1.9876,5.1552,1.1455,53.66,53.82,865.0,9.0,60.0,0.53,5.3,86.5,8.65,0.85
00:35:20,4.5250,1.9879,5.1802,1.1510,53.92,54.08,864.0,9.0,60.0,0.53,5.3,86.4,8.64,0.85
00:35:30,4.5250,1.9879,5.2052,1.1565,54.18,54.34,863.0,9.0,60.0,0.53,5.3,86.3,8.63,0.85
00:35:40,4.5250,1.9877,5.2301,1.1621,54.44,54.60,865.0,8.99,59.9,0.53,5.3,86.5,8.65,0.85
00:35:50,4.5250,1.9874,5.2551,1.1676,54.70,54.86,865.0,8.99,59.9,0.53,5.3,86.5,8.65,0.85
00:36:00,4.5250,1.9875,5.2801,1.1731,54.96,55.12,866.0,8.99,59.9,0.53,5.3,86.6,8.66,0.85
00:36:10,4.5250,1.9874,5.3051,1.1786,55.22,55.38,866.0,8.99,59.9,0.53,5.3,86.6,8.66,0.85
00:36:20,4.5250,1.9875,5.3301,1.1842,55.48,55.64,863.0,8.99,59.9,0.53,5.3,86.3,8.63,0.85
00:36:30,4.5260,1.9874,5.3551,1.1897,55.74,55.90,860.0,8.99,59.9,0.53,5.3,86.0,8.6,0.86
00:36:40,4.5260,1.9877,5.3800,1.1952,56.00,56.16,861.0,9.0,60.0,0.53,5.3,86.1,8.61,0.86
00:36:50,4.5260,1.9875,5.4050,1.2007,56.26,56.42,859.0,9.0,60.0,0.53,5.3,85.9,8.59,0.86
00:37:00,4.5260,1.9873,5.4300,1.2062,56.52,56.67,854.0,8.99,59.9,0.53,5.3,85.4,8.54,0.86
00:37:10,4.5260,1.9874,5.4550,1.2118,56.78,56.93,854.0,8.99,59.9,0.53,5.3,85.4,8.54,0.86
00:37:20,4.5260,1.9878,5.4800,1.2173,57.04,57.19,847.0,9.0,60.0,0.53,5.3,84.7,8.47,0.87
00:37:30,4.5260,1.9878,5.5050,1.2228,57.30,57.45,851.0,9.0,60.0,0.53,5.3,85.1,8.51,0.87
00:37:40,4.5260,1.9872,5.5300,1.2283,57.56,57.71,856.0,8.99,59.9,0.53,5.3,85.6,8.56,0.86
00:37:50,4.5260,1.9877,5.5550,1.2338,57.82,57.97,861.0,9.0,60.0,0.53,5.3,86.1,8.61,0.86
00:38:00,4.5260,1.9881,5.5800,1.2394,58.08,58.23,864.0,9.0,60.0,0.53,5.3,86.4,8.64,0.85
00:38:10,4.5260,1.9870,5.6049,1.2449,58.34,58.49,865.0,8.99,59.9,0.53,5.3,86.5,8.65,0.85
00:38:20,4.5260,1.9884,5.6299,1.2504,58.60,58.75,864.0,9.0,60.0,0.53,5.3,86.4,8.64,0.85
00:38:30,4.5260,1.9875,5.6549,1.2559,58.86,59.01,865.0,9.0,60.0,0.53,5.3,86.5,8.65,0.85
00:38:40,4.5260,1.9873,5.6799,1.2614,59.12,59.27,866.0,8.99,59.9,0.53,5.3,86.6,8.66,0.85
00:38:50,4.5250,1.9880,5.7049,1.2670,59.38,59.53,865.0,9.0,60.0,0.53,5.3,86.5,8.65,0.85
00:39:00,4.5260,1.9874,5.7299,1.2725,59.64,59.79,862.0,8.99,59.9,0.53,5.3,86.2,8.62,0.85
00:39:10,4.5260,1.9877,5.7549,1.2780,59.90,60.05,861.0,9.0,60.0,0.53,5.3,86.1,8.61,0.86
00:39:20,4.5270,1.9874,5.7799,1.2835,60.16,60.31,862.0,9.0,60.0,0.53,5.3,86.2,8.62,0.86
00:39:30,4.5270,1.9880,5.8049,1.2891,60.42,60.57,862.0,9.0,60.0,0.53,5.3,86.2,8.62,0.86
00:39:40,4.5260,1.9882,5.8299,1.2946,60.68,60.83,855.0,9.0,60.0,0.53,5.3,85.5,8.55,0.86
00:39:50,4.5260,1.9879,5.8549,1.3001,60.94,61.09,855.0,9.0,60.0,0.53,5.3,85.5,8.55,0.86
00:40:00,4.5270,1.9879,5.8799,1.3056,61.21,61.34,853.0,9.0,60.0,0.53,5.3,85.3,8.53,0.86
00:40:10,4.5270,1.9881,5.9049,1.3111,61.47,61.60,854.0,9.0,60.0,0.53,5.3,85.4,8.54,0.86
00:40:20,4.5270,1.9877,5.9298,1.3167,61.73,61.86,854.0,9.0,60.0,0.53,5.3,85.4,8.54,0.86
00:40:30,4.5270,1.9876,5.9548,1.3222,61.99,62.12,858.0,9.0,60.0,0.53,5.3,85.8,8.58,0.86
00:40:40,4.5270,1.9878,5.9798,1.3277,62.25,62.38,860.0,9.0,60.0,0.53,5.3,86.0,8.6,0.86
00:40:50,4.5270,1.9878,6.0048,1.3332,62.51,62.64,861.0,9.0,60.0,0.53,5.3,86.1,8.61,0.86
00:41:00,4.5270,1.9873,6.0298,1.3387,62.77,62.90,860.0,9.0,60.0,0.53,5.3,86.0,8.6,0.86
00:41:10,4.5260,1.9874,6.0548,1.3443,63.03,63.16,855.0,8.99,59.9,0.53,5.3,85.5,8.55,0.86
00:41:20,4.5270,1.9872,6.0798,1.3498,63.29,63.42,853.0,9.0,60.0,0.53,5.3,85.3,8.53,0.86
00:41:30,4.5270,1.9876,6.1048,1.3553,63.55,63.68,852.0,9.0,60.0,0.53,5.3,85.2,8.52,0.87
00:41:40,4.5270,1.9879,6.1298,1.3608,63.81,63.94,851.0,9.0,60.0,0.53,5.3,85.1,8.51,0.87
00:41:50,4.5260,1.9873,6.1548,1.3664,64.07,64.20,851.0,8.99,59.9,0.53,5.3,85.1,8.51,0.87
00:42:00,4.5260,1.9874,6.1798,1.3719,64.33,64.46,851.0,8.99,59.9,0.53,5.3,85.1,8.51,0.87
00:42:10,4.5260,1.9880,6.2048,1.3774,64.59,64.72,850.0,9.0,60.0,0.53,5.3,85.0,8.5,0.87
00:42:20,4.5260,1.9877,6.2297,1.3829,64.85,64.98,848.0,9.0,60.0,0.53,5.3,84.8,8.48,0.87
00:42:30,4.5260,1.9872,6.2547,1.3884,65.11,65.24,847.0,8.99,59.9,0.53,5.3,84.7,8.47,0.87
00:42:40,4.5260,1.9878,6.2797,1.3940,65.37,65.50,849.0,9.0,60.0,0.53,5.3,84.9,8.49,0.87
00:42:50,4.5260,1.9878,6.3047,1.3995,65.63,65.75,851.0,9.0,60.0,0.53,5.3,85.1,8.51,0.87
00:43:00,4.5260,1.9876,6.3297,1.4050,65.89,66.01,850.0,9.0,60.0,0.53,5.3,85.0,8.5,0.87
00:43:10,4.5260,1.9877,6.3547,1.4105,66.15,66.27,852.0,9.0,60.0,0.53,5.3,85.2,8.52,0.87
00:43:20,4.5260,1.9876,6.3797,1.4160,66.41,66.53,849.0,9.0,60.0,0.53,5.3,84.9,8.49,0.87
00:43:30,4.5270,1.9874,6.4047,1.4216,66.67,66.79,847.0,9.0,60.0,0.53,5.3,84.7,8.47,0.87
00:43:40,4.5270,1.9872,6.4297,1.4271,66.93,67.05,846.0,9.0,60.0,0.53,5.3,84.6,8.46,0.87
00:43:50,4.5270,1.9880,6.4547,1.4326,67.19,67.31,845.0,9.0,60.0,0.53,5.3,84.5,8.45,0.87
00:44:00,4.5270,1.9879,6.4797,1.4381,67.45,67.57,847.0,9.0,60.0,0.53,5.3,84.7,8.47,0.87
00:44:10,4.5270,1.9878,6.5047,1.4436,67.71,67.83,847.0,9.0,60.0,0.53,5.3,84.7,8.47,0.87
00:44:20,4.5270,1.9872,6.5296,1.4492,67.97,68.09,848.0,9.0,60.0,0.53,5.3,84.8,8.48,0.87
00:44:30,4.5270,1.9875,6.5546,1.4547,68.23,68.35,848.0,9.0,60.0,0.53,5.3,84.8,8.48,0.87
00:44:40,4.5270,1.9878,6.5796,1.4602,68.49,68.61,851.0,9.0,60.0,0.53,5.3,85.1,8.51,0.87
00:44:50,4.5270,1.9874,6.6046,1.4657,68.75,68.87,847.0,9.0,60.0,0.53,5.3,84.7,8.47,0.87
00:45:00,4.5280,1.9876,6.6296,1.4713,69.01,69.13,843.0,9.0,60.0,0.53,5.3,84.3,8.43,0.88
00:45:10,4.5290,1.9882,6.6546,1.4768,69.27,69.39,841.0,9.0,60.0,0.53,5.3,84.1,8.41,0.88
00:45:20,4.5290,1.9881,6.6796,1.4823,69.53,69.65,844.0,9.0,60.0,0.53,5.3,84.4,8.44,0.87
00:45:30,4.5290,1.9879,6.7047,1.4878,69.79,69.91,845.0,9.0,60.0,0.53,5.3,84.5,8.45,0.87
00:45:40,4.5290,1.9876,6.7297,1.4933,70.05,70.16,846.0,9.0,60.0,0.53,5.3,84.6,8.46,0.87
00:45:50,4.5290,1.9891,6.7547,1.4989,70.31,70.42,847.0,9.01,60.1,0.53,5.3,84.7,8.47,0.87
00:46:00,4.5290,1.9875,6.7797,1.5044,70.57,70.68,846.0,9.0,60.0,0.53,5.3,84.6,8.46,0.87
00:46:10,4.5280,1.9881,6.8047,1.5099,70.83,70.94,846.0,9.0,60.0,0.53,5.3,84.6,8.46,0.87
00:46:20,4.5290,1.9877,6.8297,1.5154,71.09,71.20,844.0,9.0,60.0,0.53,5.3,84.4,8.44,0.87
00:46:30,4.5290,1.9880,6.8547,1.5210,71.35,71.46,847.0,9.0,60.0,0.53,5.3,84.7,8.47,0.87
00:46:40,4.5280,1.9880,6.8797,1.5265,71.61,71.72,846.0,9.0,60.0,0.53,5.3,84.6,8.46,0.87
00:46:50,4.5270,1.9877,6.9047,1.5320,71.87,71.98,847.0,9.0,60.0,0.53,5.3,84.7,8.47,0.87
00:47:00,4.5270,1.9878,6.9297,1.5375,72.13,72.24,845.0,9.0,60.0,0.53,5.3,84.5,8.45,0.87
00:47:10,4.5270,1.9879,6.9547,1.5430,72.39,72.50,845.0,9.0,60.0,0.53,5.3,84.5,8.45,0.87
00:47:20,4.5270,1.9873,6.9797,1.5486,72.65,72.76,845.0,9.0,60.0,0.53,5.3,84.5,8.45,0.87
00:47:30,4.5270,1.9874,7.0047,1.5541,72.91,73.02,844.0,9.0,60.0,0.53,5.3,84.4,8.44,0.87
00:47:40,4.5270,1.9877,7.0297,1.5596,73.17,73.28,845.0,9.0,60.0,0.53,5.3,84.5,8.45,0.87
00:47:50,4.5290,1.9873,7.0547,1.5651,73.43,73.54,844.0,9.0,60.0,0.53,5.3,84.4,8.44,0.87
00:48:00,4.5300,1.9877,7.0797,1.5706,73.69,73.80,843.0,9.0,60.0,0.53,5.3,84.3,8.43,0.88
00:48:10,4.5290,1.9874,7.1047,1.5762,73.95,74.06,842.0,9.0,60.0,0.53,5.3,84.2,8.42,0.88
00:48:20,4.5300,1.9877,7.1297,1.5817,74.22,74.32,840.0,9.0,60.0,0.53,5.3,84.0,8.4,0.88
00:48:30,4.5300,1.9880,7.1547,1.5872,74.48,74.58,842.0,9.01,60.1,0.53,5.3,84.2,8.42,0.88
00:48:40,4.5310,1.9878,7.1797,1.5927,74.74,74.83,844.0,9.01,60.1,0.53,5.3,84.4,8.44,0.88
00:48:50,4.5310,1.9876,7.2048,1.5983,75.00,75.09,841.0,9.01,60.1,0.53,5.3,84.1,8.41,0.88
00:49:00,4.5310,1.9884,7.2298,1.6038,75.26,75.35,839.0,9.01,60.1,0.53,5.3,83.9,8.39,0.88
00:49:10,4.5310,1.9882,7.2548,1.6093,75.52,75.61,840.0,9.01,60.1,0.53,5.3,84.0,8.4,0.88
00:49:20,4.5310,1.9877,7.2798,1.6148,75.78,75.87,842.0,9.01,60.1,0.53,5.3,84.2,8.42,0.88
00:49:30,4.5310,1.9884,7.3049,1.6203,76.04,76.13,845.0,9.01,60.1,0.53,5.3,84.5,8.45,0.87
00:49:40,4.5310,1.9883,7.3299,1.6259,76.30,76.39,845.0,9.01,60.1,0.53,5.3,84.5,8.45,0.87
00:49:50,4.5310,1.9885,7.3549,1.6314,76.56,76.65,846.0,9.01,60.1,0.53,5.3,84.6,8.46,0.87
00:50:00,4.5310,1.9878,7.3799,1.6369,76.82,76.91,846.0,9.01,60.1,0.53,5.3,84.6,8.46,0.87
00:50:10,4.5320,1.9878,7.4049,1.6424,77.08,77.17,846.0,9.01,60.1,0.53,5.3,84.6,8.46,0.87
00:50:20,4.5320,1.9879,7.4300,1.6480,77.34,77.43,845.0,9.01,60.1,0.53,5.3,84.5,8.45,0.87
00:50:30,4.5320,1.9878,7.4550,1.6535,77.60,77.69,844.0,9.01,60.1,0.53,5.3,84.4,8.44,0.88
00:50:40,4.5320,1.9872,7.4800,1.6590,77.86,77.95,845.0,9.01,60.1,0.53,5.3,84.5,8.45,0.87
00:50:50,4.5320,1.9878,7.5050,1.6645,78.12,78.21,846.0,9.01,60.1,0.53,5.3,84.6,8.46,0.87
00:51:00,4.5320,1.9877,7.5301,1.6700,78.38,78.47,845.0,9.01,60.1,0.53,5.3,84.5,8.45,0.87
00:51:10,4.5330,1.9877,7.5551,1.6756,78.64,78.73,844.0,9.01,60.1,0.53,5.3,84.4,8.44,0.88
00:51:20,4.5330,1.9884,7.5801,1.6811,78.90,78.99,845.0,9.01,60.1,0.53,5.3,84.5,8.45,0.87
00:51:30,4.5330,1.9884,7.6052,1.6866,79.16,79.25,844.0,9.01,60.1,0.53,5.3,84.4,8.44,0.88
00:51:40,4.5330,1.9886,7.6302,1.6921,79.43,79.50,843.0,9.01,60.1,0.53,5.3,84.3,8.43,0.88
00:51:50,4.5330,1.9888,7.6552,1.6977,79.69,79.76,843.0,9.02,60.1,0.53,5.3,84.3,8.43,0.88
00:52:00,4.5340,1.9886,7.6803,1.7032,79.95,80.02,844.0,9.02,60.1,0.53,5.3,84.4,8.44,0.88
00:52:10,4.5350,1.9879,7.7053,1.7087,80.21,80.28,845.0,9.02,60.1,0.53,5.3,84.5,8.45,0.87
00:52:20,4.5350,1.9881,7.7304,1.7142,80.47,80.54,846.0,9.02,60.1,0.53,5.3,84.6,8.46,0.87
00:52:30,4.5350,1.9882,7.7554,1.7197,80.73,80.80,847.0,9.02,60.1,0.53,5.3,84.7,8.47,0.87
00:52:40,4.5350,1.9883,7.7805,1.7253,80.99,81.06,846.0,9.02,60.1,0.53,5.3,84.6,8.46,0.87
00:52:50,4.5350,1.9880,7.8055,1.7308,81.25,81.32,847.0,9.02,60.1,0.53,5.3,84.7,8.47,0.87
00:53:00,4.5350,1.9881,7.8306,1.7363,81.51,81.58,848.0,9.02,60.1,0.53,5.3,84.8,8.48,0.87
00:53:10,4.5340,1.9883,7.8556,1.7418,81.77,81.84,847.0,9.01,60.1,0.53,5.3,84.7,8.47,0.87
00:53:20,4.5340,1.9879,7.8806,1.7474,82.03,82.10,849.0,9.01,60.1,0.53,5.3,84.9,8.49,0.87
00:53:30,4.5340,1.9879,7.9057,1.7529,82.29,82.36,847.0,9.01,60.1,0.53,5.3,84.7,8.47,0.87
00:53:40,4.5330,1.9884,7.9307,1.7584,82.55,82.62,848.0,9.01,60.1,0.53,5.3,84.8,8.48,0.87
00:53:50,4.5320,1.9883,7.9557,1.7639,82.81,82.88,848.0,9.01,60.1,0.53,5.3,84.8,8.48,0.87
00:54:00,4.5320,1.9879,7.9808,1.7694,83.07,83.14,848.0,9.01,60.1,0.53,5.3,84.8,8.48,0.87
00:54:10,4.5320,1.9877,8.0058,1.7750,83.33,83.40,847.0,9.01,60.1,0.53,5.3,84.7,8.47,0.87
00:54:20,4.5320,1.9881,8.0308,1.7805,83.60,83.66,849.0,9.01,60.1,0.53,5.3,84.9,8.49,0.87
00:54:30,4.5320,1.9880,8.0558,1.7860,83.86,83.92,846.0,9.01,60.1,0.53,5.3,84.6,8.46,0.87
00:54:40,4.5320,1.9878,8.0809,1.7915,84.12,84.18,845.0,9.01,60.1,0.53,5.3,84.5,8.45,0.87
00:54:50,4.5320,1.9877,8.1059,1.7971,84.38,84.43,845.0,9.01,60.1,0.53,5.3,84.5,8.45,0.87
00:55:00,4.5320,1.9877,8.1309,1.8026,84.64,84.69,844.0,9.01,60.1,0.53,5.3,84.4,8.44,0.88
00:55:10,4.5320,1.9876,8.1559,1.8081,84.90,84.95,841.0,9.01,60.1,0.53,5.3,84.1,8.41,0.88
00:55:20,4.5320,1.9874,8.1810,1.8136,85.16,85.21,839.0,9.01,60.1,0.53,5.3,83.9,8.39,0.88
00:55:30,4.5320,1.9881,8.2060,1.8191,85.42,85.47,836.0,9.01,60.1,0.53,5.3,83.6,8.36,0.88
00:55:40,4.5310,1.9879,8.2310,1.8247,85.68,85.73,836.0,9.01,60.1,0.53,5.3,83.6,8.36,0.88
00:55:50,4.5320,1.9877,8.2560,1.8302,85.94,85.99,835.0,9.01,60.1,0.53,5.3,83.5,8.35,0.88
00:56:00,4.5310,1.9879,8.2810,1.8357,86.20,86.25,837.0,9.01,60.1,0.53,5.3,83.7,8.37,0.88
00:56:10,4.5310,1.9877,8.3061,1.8412,86.46,86.51,835.0,9.01,60.1,0.53,5.3,83.5,8.35,0.88
00:56:20,4.5310,1.9877,8.3311,1.8468,86.72,86.77,836.0,9.01,60.1,0.53,5.3,83.6,8.36,0.88
00:56:30,4.5310,1.9875,8.3561,1.8523,86.98,87.03,836.0,9.01,60.1,0.53,5.3,83.6,8.36,0.88
00:56:40,4.5300,1.9873,8.3811,1.8578,87.24,87.29,837.0,9.0,60.0,0.53,5.3,83.7,8.37,0.88
00:56:50,4.5310,1.9872,8.4061,1.8633,87.50,87.55,836.0,9.0,60.0,0.53,5.3,83.6,8.36,0.88
00:57:00,4.5310,1.9877,8.4311,1.8688,87.76,87.81,838.0,9.01,60.1,0.53,5.3,83.8,8.38,0.88
00:57:10,4.5300,1.9878,8.4561,1.8744,88.02,88.07,836.0,9.0,60.0,0.53,5.3,83.6,8.36,0.88
00:57:20,4.5300,1.9878,8.4812,1.8799,88.28,88.33,834.0,9.0,60.0,0.53,5.3,83.4,8.34,0.88
00:57:30,4.5300,1.9876,8.5062,1.8854,88.54,88.59,836.0,9.0,60.0,0.53,5.3,83.6,8.36,0.88
00:57:40,4.5300,1.9874,8.5312,1.8909,88.80,88.84,835.0,9.0,60.0,0.53,5.3,83.5,8.35,0.88
00:57:50,4.5300,1.9873,8.5562,1.8964,89.06,89.10,834.0,9.0,60.0,0.53,5.3,83.4,8.34,0.88
00:58:00,4.5310,1.9874,8.5812,1.9020,89.32,89.36,833.0,9.0,60.0,0.53,5.3,83.3,8.33,0.89
00:58:10,4.5310,1.9875,8.6062,1.9075,89.58,89.62,835.0,9.01,60.1,0.53,5.3,83.5,8.35,0.88
00:58:20,4.5310,1.9875,8.6312,1.9130,89.85,89.88,835.0,9.01,60.1,0.53,5.3,83.5,8.35,0.88
00:58:30,4.5300,1.9878,8.6562,1.9185,90.11,90.14,833.0,9.0,60.0,0.53,5.3,83.3,8.33,0.89
00:58:40,4.5300,1.9876,8.6813,1.9240,90.37,90.40,836.0,9.0,60.0,0.53,5.3,83.6,8.36,0.88
00:58:50,4.5300,1.9876,8.7063,1.9296,90.63,90.66,834.0,9.0,60.0,0.53,5.3,83.4,8.34,0.88
00:59:00,4.5300,1.9873,8.7313,1.9351,90.89,90.92,837.0,9.0,60.0,0.53,5.3,83.7,8.37,0.88
00:59:10,4.5290,1.9879,8.7563,1.9406,91.15,91.18,836.0,9.0,60.0,0.53,5.3,83.6,8.36,0.88
00:59:20,4.5290,1.9878,8.7813,1.9461,91.41,91.44,840.0,9.0,60.0,0.53,5.3,84.0,8.4,0.88
00:59:30,4.5290,1.9873,8.8063,1.9517,91.67,91.70,837.0,9.0,60.0,0.53,5.3,83.7,8.37,0.88
00:59:40,4.5290,1.9873,8.8313,1.9572,91.93,91.96,839.0,9.0,60.0,0.53,5.3,83.9,8.39,0.88
00:59:50,4.5290,1.9873,8.8563,1.9627,92.19,92.22,839.0,9.0,60.0,0.53,5.3,83.9,8.39,0.88
01:00:00,4.5290,1.9876,8.8813,1.9682,92.45,92.48,839.0,9.0,60.0,0.53,5.3,83.9,8.39,0.88
01:00:10,4.5300,1.9874,8.9063,1.9737,92.71,92.74,843.0,9.0,60.0,0.53,5.3,84.3,8.43,0.88
01:00:20,4.5300,1.9874,8.9313,1.9793,92.97,93.00,838.0,9.0,60.0,0.53,5.3,83.8,8.38,0.88
01:00:30,4.5300,1.9874,8.9563,1.9848,93.23,93.25,842.0,9.0,60.0,0.53,5.3,84.2,8.42,0.88
01:00:40,4.5300,1.9881,8.9813,1.9903,93.49,93.51,841.0,9.01,60.1,0.53,5.3,84.1,8.41,0.88
01:00:50,4.5300,1.9874,9.0063,1.9958,93.75,93.77,841.0,9.0,60.0,0.53,5.3,84.1,8.41,0.88
01:01:00,4.5300,1.9874,9.0314,2.0013,94.01,94.03,843.0,9.0,60.0,0.53,5.3,84.3,8.43,0.88
01:01:10,4.5300,1.9877,9.0564,2.0069,94.27,94.29,842.0,9.0,60.0,0.53,5.3,84.2,8.42,0.88
01:01:20,4.5300,1.9874,9.0814,2.0124,94.53,94.55,841.0,9.0,60.0,0.53,5.3,84.1,8.41,0.88
01:01:30,4.5310,1.9875,9.1064,2.0179,94.79,94.81,841.0,9.01,60.1,0.53,5.3,84.1,8.41,0.88
01:01:40,4.5310,1.9877,9.1314,2.0234,95.05,95.07,837.0,9.01,60.1,0.53,5.3,83.7,8.37,0.88
01:01:50,4.5300,1.9874,9.1564,2.0289,95.31,95.33,839.0,9.0,60.0,0.53,5.3,83.9,8.39,0.88
01:02:00,4.5310,1.9876,9.1814,2.0345,95.57,95.59,838.0,9.01,60.1,0.53,5.3,83.8,8.38,0.88
01:02:10,4.5310,1.9878,9.2064,2.0400,95.83,95.85,835.0,9.01,60.1,0.53,5.3,83.5,8.35,0.88
01:02:20,4.5310,1.9875,9.2315,2.0455,96.09,96.11,837.0,9.01,60.1,0.53,5.3,83.7,8.37,0.88
01:02:30,4.5310,1.9878,9.2565,2.0510,96.35,96.37,836.0,9.01,60.1,0.53,5.3,83.6,8.36,0.88
01:02:40,4.5300,1.9880,9.2815,2.0565,96.61,96.63,837.0,9.01,60.1,0.53,5.3,83.7,8.37,0.88
01:02:50,4.5300,1.9880,9.3065,2.0621,96.87,96.89,836.0,9.01,60.1,0.53,5.3,83.6,8.36,0.88
01:03:00,4.5310,1.9875,9.3315,2.0676,97.13,97.15,835.0,9.01,60.1,0.53,5.3,83.5,8.35,0.88
01:03:10,4.5310,1.9877,9.3565,2.0731,97.40,97.41,835.0,9.01,60.1,0.53,5.3,83.5,8.35,0.88
01:03:20,4.5310,1.9877,9.3816,2.0786,97.66,97.66,837.0,9.01,60.1,0.53,5.3,83.7,8.37,0.88
01:03:30,4.5310,1.9878,9.4066,2.0842,97.92,97.92,835.0,9.01,60.1,0.53,5.3,83.5,8.35,0.88
01:03:40,4.5310,1.9880,9.4316,2.0897,98.18,98.18,835.0,9.01,60.1,0.53,5.3,83.5,8.35,0.88
01:03:50,4.5320,1.9877,9.4566,2.0952,98.44,98.44,835.0,9.01,60.1,0.53,5.3,83.5,8.35,0.88
01:04:00,4.5320,1.9884,9.4817,2.1007,98.70,98.70,835.0,9.01,60.1,0.53,5.3,83.5,8.35,0.88
01:04:10,4.5320,1.9880,9.5067,2.1062,98.96,98.96,832.0,9.01,60.1,0.53,5.3,83.2,8.32,0.89
01:04:20,4.5320,1.9880,9.5317,2.1118,99.22,99.22,835.0,9.01,60.1,0.53,5.3,83.5,8.35,0.88
01:04:30,4.5320,1.9879,9.5567,2.1173,99.48,99.48,832.0,9.01,60.1,0.53,5.3,83.2,8.32,0.89
01:04:40,4.5310,1.9883,9.5818,2.1228,99.74,99.74,824.0,9.01,60.1,0.53,5.3,82.4,8.24,0.9
01:04:50,4.5310,1.9883,9.6068,2.1283,100.00,100.00,821.0,9.01,60.1,0.53,5.3,82.1,8.21,0.9
01:05:00,4.5250,1.9876,9.6318,2.1339,100.26,100.26,836.0,8.99,59.9,0.53,5.3,83.6,8.36,0.88