File: output/3/nekteck-1.csv
Time,Voltage(V),Current(A),Energy(Wh),Capacity(Ah),Energy Proportion(%),Capacity Proportion(%),Irradiance(W/m2),Power(W),Power Score,Sun Score
00:00:00,4.6950,1.9888,0.0259,0.0055,0.12,0.11,0.0,9.34,93.4,0.0
00:00:20,4.7070,1.9894,0.0779,0.0166,0.37,0.34,0.0,9.36,93.6,0.0
00:00:40,4.7060,1.9886,0.1299,0.0276,0.62,0.56,0.0,9.36,93.6,0.0
00:01:00,4.7050,1.9881,0.1819,0.0387,0.87,0.78,0.0,9.35,93.5,0.0
00:01:20,4.7040,1.9879,0.2339,0.0497,1.12,1.01,0.0,9.35,93.5,0.0
00:01:40,4.7030,1.9880,0.2858,0.0608,1.36,1.23,0.0,9.35,93.5,0.0
00:02:00,4.7020,1.9884,0.3377,0.0718,1.61,1.46,0.0,9.35,93.5,0.0
00:02:20,4.7010,1.9880,0.3897,0.0829,1.86,1.68,0.0,9.35,93.5,0.0
00:02:40,4.7000,1.9888,0.4416,0.0939,2.11,1.90,0.0,9.35,93.5,0.0
00:03:00,4.7000,1.9881,0.4935,0.1049,2.35,2.13,0.0,9.34,93.4,0.0
00:03:20,4.6990,1.9879,0.5454,0.1160,2.60,2.35,0.0,9.34,93.4,0.0
00:03:40,4.6990,1.9878,0.5973,0.1270,2.85,2.57,0.0,9.34,93.4,0.0
00:04:00,4.6970,1.9871,0.6492,0.1381,3.10,2.80,0.0,9.33,93.3,0.0
00:04:20,4.6970,1.9877,0.7010,0.1491,3.34,3.02,0.0,9.34,93.4,0.0
00:04:40,4.6960,1.9872,0.7529,0.1602,3.59,3.25,0.0,9.33,93.3,0.0
00:05:00,4.6950,1.9876,0.8047,0.1712,3.84,3.47,0.0,9.33,93.3,0.0
00:05:20,4.6950,1.9873,0.8565,0.1822,4.08,3.69,0.0,9.33,93.3,0.0
00:05:40,4.6950,1.9876,0.9084,0.1933,4.33,3.92,0.0,9.33,93.3,0.0
00:06:00,4.6950,1.9878,0.9602,0.2043,4.58,4.14,0.0,9.33,93.3,0.0
00:06:20,4.6950,1.9876,1.0121,0.2154,4.83,4.36,0.0,9.33,93.3,0.0
00:06:40,4.6940,1.9874,1.0639,0.2264,5.07,4.59,0.0,9.33,93.3,0.0
00:07:00,4.6940,1.9880,1.1157,0.2374,5.32,4.81,0.0,9.33,93.3,0.0
00:07:20,4.6940,1.9878,1.1676,0.2485,5.57,5.04,0.0,9.33,93.3,0.0
00:07:40,4.6930,1.9883,1.2194,0.2595,5.81,5.26,0.0,9.33,93.3,0.0
00:08:00,4.6920,1.9881,1.2712,0.2706,6.06,5.48,0.0,9.33,93.3,0.0
00:08:20,4.6920,1.9879,1.3231,0.2816,6.31,5.71,0.0,9.33,93.3,0.0
00:08:40,4.6910,1.9880,1.3749,0.2927,6.56,5.93,0.0,9.33,93.3,0.0
00:09:00,4.6900,1.9872,1.4267,0.3037,6.80,6.16,0.0,9.32,93.2,0.0
00:09:20,4.6890,1.9885,1.4784,0.3148,7.05,6.38,0.0,9.32,93.2,0.0
00:09:40,4.6890,1.9876,1.5302,0.3258,7.30,6.60,0.0,9.32,93.2,0.0
00:10:00,4.6900,1.9872,1.5820,0.3368,7.54,6.83,0.0,9.32,93.2,0.0
00:10:20,4.6900,1.9875,1.6338,0.3479,7.79,7.05,0.0,9.32,93.2,0.0
00:10:40,4.6900,1.9874,1.6856,0.3589,8.04,7.27,0.0,9.32,93.2,0.0
00:11:00,4.6880,1.9876,1.7373,0.3700,8.28,7.50,0.0,9.32,93.2,0.0
00:11:20,4.6870,1.9872,1.7891,0.3810,8.53,7.72,0.0,9.31,93.1,0.0
00:11:40,4.6860,1.9871,1.8408,0.3920,8.78,7.95,0.0,9.31,93.1,0.0
00:12:00,4.6860,1.9869,1.8925,0.4031,9.02,8.17,0.0,9.31,93.1,0.0
00:12:20,4.6880,1.9875,1.9443,0.4141,9.27,8.39,0.0,9.32,93.2,0.0
00:12:40,4.6880,1.9877,1.9961,0.4252,9.52,8.62,0.0,9.32,93.2,0.0
00:13:00,4.6870,1.9876,2.0478,0.4362,9.76,8.84,0.0,9.32,93.2,0.0
00:13:20,4.6860,1.9883,2.0996,0.4472,10.01,9.06,0.0,9.32,93.2,0.0
00:13:40,4.6870,1.9881,2.1513,0.4583,10.26,9.29,0.0,9.32,93.2,0.0
00:14:00,4.6860,1.9882,2.2031,0.4693,10.50,9.51,0.0,9.32,93.2,0.0
00:14:20,4.6850,1.9876,2.2548,0.4804,10.75,9.74,0.0,9.31,93.1,0.0
00:14:40,4.6850,1.9872,2.3066,0.4914,11.00,9.96,0.0,9.31,93.1,0.0
00:15:00,4.6850,1.9870,2.3583,0.5025,11.24,10.18,0.0,9.31,93.1,0.0
00:15:20,4.6840,1.9872,2.4100,0.5135,11.49,10.41,0.0,9.31,93.1,0.0
00:15:40,4.6840,1.9876,2.4617,0.5245,11.74,10.63,0.0,9.31,93.1,0.0
00:16:00,4.6850,1.9869,2.5134,0.5356,11.98,10.85,0.0,9.31,93.1,0.0
00:16:20,4.6850,1.9873,2.5652,0.5466,12.23,11.08,0.0,9.31,93.1,0.0
00:16:40,4.6850,1.9868,2.6169,0.5577,12.48,11.30,0.0,9.31,93.1,0.0
00:17:00,4.6850,1.9875,2.6686,0.5687,12.72,11.53,0.0,9.31,93.1,0.0
00:17:20,4.6850,1.9873,2.7203,0.5797,12.97,11.75,0.0,9.31,93.1,0.0
00:17:40,4.6860,1.9874,2.7721,0.5908,13.22,11.97,0.0,9.31,93.1,0.0
00:18:00,4.6860,1.9875,2.8238,0.6018,13.46,12.20,0.0,9.31,93.1,0.0
00:18:20,4.6860,1.9872,2.8756,0.6129,13.71,12.42,0.0,9.31,93.1,0.0
00:18:40,4.6860,1.9878,2.9273,0.6239,13.96,12.64,0.0,9.31,93.1,0.0
00:19:00,4.6870,1.9876,2.9791,0.6349,14.20,12.87,0.0,9.32,93.2,0.0
00:19:20,4.6870,1.9874,3.0308,0.6460,14.45,13.09,0.0,9.31,93.1,0.0
00:19:40,4.6870,1.9879,3.0826,0.6570,14.70,13.32,0.0,9.32,93.2,0.0
00:20:00,4.6860,1.9880,3.1343,0.6681,14.94,13.54,0.0,9.32,93.2,0.0
00:20:20,4.6870,1.9875,3.1861,0.6791,15.19,13.76,0.0,9.32,93.2,0.0
00:20:40,4.6870,1.9881,3.2379,0.6902,15.44,13.99,0.0,9.32,93.2,0.0
00:21:00,4.6870,1.9874,3.2896,0.7012,15.68,14.21,0.0,9.31,93.1,0.0
00:21:20,4.6860,1.9872,3.3413,0.7123,15.93,14.44,0.0,9.31,93.1,0.0
00:21:40,4.6860,1.9873,3.3931,0.7233,16.18,14.66,0.0,9.31,93.1,0.0
00:22:00,4.6850,1.9871,3.4448,0.7343,16.42,14.88,0.0,9.31,93.1,0.0
00:22:20,4.6850,1.9881,3.4966,0.7454,16.67,15.11,0.0,9.31,93.1,0.0
00:22:40,4.6860,1.9874,3.5483,0.7564,16.92,15.33,0.0,9.31,93.1,0.0
00:23:00,4.6860,1.9878,3.6000,0.7675,17.16,15.55,0.0,9.31,93.1,0.0
00:23:20,4.6850,1.9874,3.6518,0.7785,17.41,15.78,0.0,9.31,93.1,0.0
00:23:40,4.6850,1.9877,3.7035,0.7895,17.66,16.00,0.0,9.31,93.1,0.0
00:24:00,4.6860,1.9876,3.7553,0.8006,17.90,16.23,0.0,9.31,93.1,0.0
00:24:20,4.6870,1.9871,3.8070,0.8116,18.15,16.45,0.0,9.31,93.1,0.0
00:24:40,4.6870,1.9882,3.8588,0.8227,18.40,16.67,0.0,9.32,93.2,0.0
00:25:00,4.6880,1.9883,3.9105,0.8337,18.64,16.90,0.0,9.32,93.2,0.0
00:25:20,4.6870,1.9875,3.9623,0.8448,18.89,17.12,0.0,9.32,93.2,0.0
00:25:40,4.6870,1.9884,4.0141,0.8558,19.14,17.34,0.0,9.32,93.2,0.0
00:26:00,4.6880,1.9876,4.0658,0.8668,19.39,17.57,0.0,9.32,93.2,0.0
00:26:20,4.6870,1.9874,4.1176,0.8779,19.63,17.79,0.0,9.31,93.1,0.0
00:26:40,4.6870,1.9885,4.1694,0.8889,19.88,18.02,0.0,9.32,93.2,0.0
00:27:00,4.6870,1.9880,4.2211,0.9000,20.13,18.24,0.0,9.32,93.2,0.0
00:27:20,4.6870,1.9880,4.2729,0.9110,20.37,18.46,0.0,9.32,93.2,0.0
00:27:40,4.6870,1.9881,4.3247,0.9221,20.62,18.69,0.0,9.32,93.2,0.0
00:28:00,4.6870,1.9877,4.3764,0.9331,20.87,18.91,0.0,9.32,93.2,0.0
00:28:20,4.6870,1.9875,4.4282,0.9442,21.11,19.14,0.0,9.32,93.2,0.0
00:28:40,4.6860,1.9880,4.4799,0.9552,21.36,19.36,0.0,9.32,93.2,0.0
00:29:00,4.6850,1.9879,4.5317,0.9662,21.61,19.58,0.0,9.31,93.1,0.0
00:29:20,4.6850,1.9876,4.5834,0.9773,21.85,19.81,0.0,9.31,93.1,0.0
00:29:40,4.6850,1.9876,4.6351,0.9883,22.10,20.03,0.0,9.31,93.1,0.0
00:30:00,4.6840,1.9876,4.6869,0.9994,22.35,20.25,0.0,9.31,93.1,0.0
00:30:20,4.6830,1.9879,4.7386,1.0104,22.59,20.48,0.0,9.31,93.1,0.0
00:30:40,4.6820,1.9872,4.7903,1.0215,22.84,20.70,0.0,9.3,93.0,0.0
00:31:00,4.6820,1.9878,4.8420,1.0325,23.09,20.93,0.0,9.31,93.1,0.0
00:31:20,4.6820,1.9875,4.8937,1.0435,23.33,21.15,0.0,9.31,93.1,0.0
00:31:40,4.6820,1.9875,4.9454,1.0546,23.58,21.37,0.0,9.31,93.1,0.0
00:32:00,4.6820,1.9868,4.9971,1.0656,23.83,21.60,0.0,9.3,93.0,0.0
00:32:20,4.6820,1.9869,5.0488,1.0767,24.07,21.82,0.0,9.3,93.0,0.0
00:32:40,4.6830,1.9873,5.1005,1.0877,24.32,22.04,0.0,9.31,93.1,0.0
00:33:00,4.6850,1.9869,5.1522,1.0987,24.56,22.27,0.0,9.31,93.1,0.0
00:33:20,4.6850,1.9873,5.2039,1.1098,24.81,22.49,0.0,9.31,93.1,0.0
00:33:40,4.6840,1.9872,5.2556,1.1208,25.06,22.72,0.0,9.31,93.1,0.0
00:34:00,4.6850,1.9873,5.3073,1.1319,25.30,22.94,0.0,9.31,93.1,0.0
00:34:20,4.6850,1.9875,5.3591,1.1429,25.55,23.16,0.0,9.31,93.1,0.0
00:34:40,4.6860,1.9874,5.4108,1.1539,25.80,23.39,0.0,9.31,93.1,0.0
00:35:00,4.6870,1.9875,5.4625,1.1650,26.04,23.61,0.0,9.32,93.2,0.0
00:35:20,4.6870,1.9875,5.5143,1.1760,26.29,23.83,0.0,9.32,93.2,0.0
00:35:40,4.6860,1.9875,5.5660,1.1871,26.54,24.06,0.0,9.31,93.1,0.0
00:36:00,4.6860,1.9873,5.6178,1.1981,26.78,24.28,0.0,9.31,93.1,0.0
00:36:20,4.6860,1.9876,5.6695,1.2092,27.03,24.51,0.0,9.31,93.1,0.0
00:36:40,4.6870,1.9873,5.7213,1.2202,27.28,24.73,0.0,9.31,93.1,0.0
00:37:00,4.6870,1.9878,5.7730,1.2312,27.52,24.95,0.0,9.32,93.2,0.0
00:37:20,4.6870,1.9875,5.8248,1.2423,27.77,25.18,0.0,9.32,93.2,0.0
00:37:40,4.6870,1.9874,5.8765,1.2533,28.02,25.40,0.0,9.31,93.1,0.0
00:38:00,4.6870,1.9874,5.9283,1.2644,28.27,25.63,0.0,9.31,93.1,0.0
00:38:20,4.6860,1.9876,5.9800,1.2754,28.51,25.85,0.0,9.31,93.1,0.0
00:38:40,4.6860,1.9873,6.0318,1.2864,28.76,26.07,0.0,9.31,93.1,0.0
00:39:00,4.6860,1.9876,6.0835,1.2975,29.01,26.30,0.0,9.31,93.1,0.0
00:39:20,4.6860,1.9878,6.1352,1.3085,29.25,26.52,0.0,9.31,93.1,0.0
00:39:40,4.6850,1.9875,6.1870,1.3196,29.50,26.74,0.0,9.31,93.1,0.0
00:40:00,4.6850,1.9874,6.2387,1.3306,29.75,26.97,0.0,9.31,93.1,0.0
00:40:20,4.6840,1.9873,6.2904,1.3417,29.99,27.19,0.0,9.31,93.1,0.0
00:40:40,4.6840,1.9876,6.3421,1.3527,30.24,27.42,0.0,9.31,93.1,0.0
00:41:00,4.6830,1.9873,6.3939,1.3637,30.48,27.64,0.0,9.31,93.1,0.0
00:41:20,4.6840,1.9868,6.4456,1.3748,30.73,27.86,0.0,9.31,93.1,0.0
00:41:40,4.6830,1.9880,6.4973,1.3858,30.98,28.09,0.0,9.31,93.1,0.0
00:42:00,4.6830,1.9869,6.5490,1.3969,31.22,28.31,0.0,9.3,93.0,0.0
00:42:20,4.6820,1.9859,6.6006,1.4079,31.47,28.53,0.0,9.3,93.0,0.0
00:42:40,4.6820,1.9874,6.6523,1.4189,31.72,28.76,0.0,9.31,93.1,0.0
00:43:00,4.6820,1.9869,6.7040,1.4300,31.96,28.98,0.0,9.3,93.0,0.0
00:43:20,4.6830,1.9874,6.7557,1.4410,32.21,29.21,0.0,9.31,93.1,0.0
00:43:40,4.6820,1.9876,6.8074,1.4521,32.46,29.43,0.0,9.31,93.1,0.0
00:44:00,4.6820,1.9869,6.8591,1.4631,32.70,29.65,0.0,9.3,93.0,0.0
00:44:20,4.6820,1.9872,6.9108,1.4741,32.95,29.88,0.0,9.3,93.0,0.0
00:44:40,4.6820,1.9878,6.9625,1.4852,33.20,30.10,0.0,9.31,93.1,0.0
00:45:00,4.6830,1.9875,7.0142,1.4962,33.44,30.32,0.0,9.31,93.1,0.0
00:45:20,4.6820,1.9871,7.0659,1.5073,33.69,30.55,0.0,9.3,93.0,0.0
00:45:40,4.6820,1.9878,7.1176,1.5183,33.94,30.77,0.0,9.31,93.1,0.0
00:46:00,4.6820,1.9870,7.1693,1.5293,34.18,31.00,0.0,9.3,93.0,0.0
00:46:20,4.6820,1.9869,7.2210,1.5404,34.43,31.22,0.0,9.3,93.0,0.0
00:46:40,4.6830,1.9875,7.2727,1.5514,34.67,31.44,0.0,9.31,93.1,0.0
00:47:00,4.6840,1.9870,7.3244,1.5625,34.92,31.67,0.0,9.31,93.1,0.0
00:47:20,4.6840,1.9877,7.3761,1.5735,35.17,31.89,0.0,9.31,93.1,0.0
00:47:40,4.6830,1.9877,7.4278,1.5845,35.41,32.11,0.0,9.31,93.1,0.0
00:48:00,4.6840,1.9879,7.4795,1.5956,35.66,32.34,0.0,9.31,93.1,0.0
00:48:20,4.6840,1.9884,7.5313,1.6066,35.91,32.56,0.0,9.31,93.1,0.0
00:48:40,4.6820,1.9878,7.5830,1.6177,36.15,32.79,0.0,9.31,93.1,0.0
00:49:00,4.6820,1.9872,7.6347,1.6287,36.40,33.01,0.0,9.3,93.0,0.0
00:49:20,4.6820,1.9866,7.6863,1.6398,36.65,33.23,0.0,9.3,93.0,0.0
00:49:40,4.6820,1.9868,7.7380,1.6508,36.89,33.46,0.0,9.3,93.0,0.0
00:50:00,4.6820,1.9874,7.7897,1.6618,37.14,33.68,0.0,9.31,93.1,0.0
00:50:20,4.6830,1.9879,7.8414,1.6729,37.39,33.90,0.0,9.31,93.1,0.0
00:50:40,4.6840,1.9873,7.8931,1.6839,37.63,34.13,0.0,9.31,93.1,0.0
00:51:00,4.6840,1.9879,7.9449,1.6950,37.88,34.35,0.0,9.31,93.1,0.0
00:51:20,4.6840,1.9877,7.9966,1.7060,38.13,34.58,0.0,9.31,93.1,0.0
00:51:40,4.6830,1.9869,8.0483,1.7170,38.37,34.80,0.0,9.3,93.0,0.0
00:52:00,4.6830,1.9878,8.1000,1.7281,38.62,35.02,0.0,9.31,93.1,0.0
00:52:20,4.6820,1.9873,8.1517,1.7391,38.87,35.25,0.0,9.3,93.0,0.0
00:52:40,4.6820,1.9872,8.2034,1.7502,39.11,35.47,0.0,9.3,93.0,0.0
00:53:00,4.6820,1.9873,8.2551,1.7612,39.36,35.70,0.0,9.3,93.0,0.0
00:53:20,4.6810,1.9873,8.3068,1.7722,39.61,35.92,0.0,9.3,93.0,0.0
00:53:40,4.6820,1.9870,8.3584,1.7833,39.85,36.14,0.0,9.3,93.0,0.0
00:54:00,4.6810,1.9867,8.4101,1.7943,40.10,36.37,0.0,9.3,93.0,0.0
00:54:20,4.6810,1.9870,8.4618,1.8054,40.34,36.59,0.0,9.3,93.0,0.0
00:54:40,4.6810,1.9869,8.5135,1.8164,40.59,36.81,0.0,9.3,93.0,0.0
00:55:00,4.6810,1.9876,8.5652,1.8274,40.84,37.04,0.0,9.3,93.0,0.0
00:55:20,4.6800,1.9871,8.6168,1.8385,41.08,37.26,0.0,9.3,93.0,0.0
00:55:40,4.6800,1.9880,8.6685,1.8495,41.33,37.49,0.0,9.3,93.0,0.0
00:56:00,4.6810,1.9873,8.7202,1.8606,41.58,37.71,0.0,9.3,93.0,0.0
00:56:20,4.6800,1.9873,8.7718,1.8716,41.82,37.93,0.0,9.3,93.0,0.0
00:56:40,4.6790,1.9872,8.8235,1.8826,42.07,38.16,0.0,9.3,93.0,0.0
00:57:00,4.6780,1.9870,8.8752,1.8937,42.32,38.38,0.0,9.3,93.0,0.0
00:57:20,4.6780,1.9877,8.9268,1.9047,42.56,38.60,0.0,9.3,93.0,0.0
00:57:40,4.6790,1.9869,8.9785,1.9158,42.81,38.83,0.0,9.3,93.0,0.0
00:58:00,4.6790,1.9869,9.0301,1.9268,43.05,39.05,0.0,9.3,93.0,0.0
00:58:20,4.6790,1.9871,9.0818,1.9379,43.30,39.28,0.0,9.3,93.0,0.0
00:58:40,4.6790,1.9874,9.1334,1.9489,43.55,39.50,0.0,9.3,93.0,0.0
00:59:00,4.6800,1.9873,9.1851,1.9599,43.79,39.72,0.0,9.3,93.0,0.0
00:59:20,4.6800,1.9874,9.2368,1.9710,44.04,39.95,0.0,9.3,93.0,0.0
00:59:40,4.6800,1.9873,9.2884,1.9820,44.29,40.17,0.0,9.3,93.0,0.0
01:00:00,4.6800,1.9872,9.3401,1.9931,44.53,40.39,0.0,9.3,93.0,0.0
01:00:20,4.6800,1.9872,9.3918,2.0041,44.78,40.62,0.0,9.3,93.0,0.0
01:00:40,4.6800,1.9871,9.4434,2.0151,45.02,40.84,0.0,9.3,93.0,0.0
01:01:00,4.6800,1.9874,9.4951,2.0262,45.27,41.07,0.0,9.3,93.0,0.0
01:01:20,4.6790,1.9879,9.5468,2.0372,45.52,41.29,0.0,9.3,93.0,0.0
01:01:40,4.6790,1.9872,9.5985,2.0483,45.76,41.51,0.0,9.3,93.0,0.0
01:02:00,4.6780,1.9867,9.6501,2.0593,46.01,41.74,0.0,9.29,92.9,0.0
01:02:20,4.6770,1.9873,9.7017,2.0703,46.26,41.96,0.0,9.29,92.9,0.0
01:02:40,4.6770,1.9872,9.7533,2.0814,46.50,42.18,0.0,9.29,92.9,0.0
01:03:00,4.6750,1.9873,9.8050,2.0924,46.75,42.41,0.0,9.29,92.9,0.0
01:03:20,4.6750,1.9870,9.8566,2.1035,46.99,42.63,0.0,9.29,92.9,0.0
01:03:40,4.6750,1.9876,9.9082,2.1145,47.24,42.86,0.0,9.29,92.9,0.0
01:04:00,4.6750,1.9869,9.9598,2.1255,47.49,43.08,0.0,9.29,92.9,0.0
01:04:20,4.6750,1.9882,10.0114,2.1366,47.73,43.30,0.0,9.29,92.9,0.0
01:04:40,4.6770,1.9874,10.0630,2.1476,47.98,43.53,0.0,9.3,93.0,0.0
01:05:00,4.6780,1.9883,10.1147,2.1587,48.23,43.75,0.0,9.3,93.0,0.0
01:05:20,4.6790,1.9874,10.1663,2.1697,48.47,43.97,0.0,9.3,93.0,0.0
01:05:40,4.6800,1.9873,10.2180,2.1807,48.72,44.20,0.0,9.3,93.0,0.0
01:06:00,4.6800,1.9873,10.2697,2.1918,48.96,44.42,0.0,9.3,93.0,0.0
01:06:20,4.6810,1.9878,10.3214,2.2028,49.21,44.65,0.0,9.3,93.0,0.0
01:06:40,4.6820,1.9877,10.3731,2.2139,49.46,44.87,0.0,9.31,93.1,0.0
01:07:00,4.6820,1.9878,10.4248,2.2249,49.70,45.09,0.0,9.31,93.1,0.0
01:07:20,4.6820,1.9875,10.4765,2.2359,49.95,45.32,0.0,9.31,93.1,0.0
01:07:40,4.6820,1.9876,10.5282,2.2470,50.20,45.54,0.0,9.31,93.1,0.0
01:08:00,4.6820,1.9873,10.5799,2.2580,50.44,45.76,0.0,9.3,93.0,0.0
01:08:20,4.6830,1.9872,10.6316,2.2691,50.69,45.99,0.0,9.31,93.1,0.0
01:08:40,4.6830,1.9879,10.6833,2.2801,50.94,46.21,0.0,9.31,93.1,0.0
01:09:00,4.6840,1.9880,10.7350,2.2912,51.18,46.44,0.0,9.31,93.1,0.0
01:09:20,4.6840,1.9880,10.7868,2.3022,51.43,46.66,0.0,9.31,93.1,0.0
01:09:40,4.6840,1.9882,10.8385,2.3132,51.68,46.88,0.0,9.31,93.1,0.0
01:10:00,4.6820,1.9876,10.8902,2.3243,51.92,47.11,0.0,9.31,93.1,0.0
01:10:20,4.6820,1.9877,10.9419,2.3353,52.17,47.33,0.0,9.31,93.1,0.0
01:10:40,4.6840,1.9875,10.9936,2.3464,52.42,47.55,0.0,9.31,93.1,0.0
01:11:00,4.6850,1.9883,11.0454,2.3574,52.66,47.78,0.0,9.32,93.2,0.0
01:11:20,4.6850,1.9879,11.0971,2.3685,52.91,48.00,0.0,9.31,93.1,0.0
01:11:40,4.6860,1.9880,11.1489,2.3795,53.16,48.23,0.0,9.32,93.2,0.0
01:12:00,4.6860,1.9880,11.2006,2.3906,53.40,48.45,0.0,9.32,93.2,0.0
01:12:20,4.6870,1.9878,11.2524,2.4016,53.65,48.67,0.0,9.32,93.2,0.0
01:12:40,4.6860,1.9877,11.3041,2.4126,53.90,48.90,0.0,9.31,93.1,0.0
01:13:00,4.6850,1.9878,11.3559,2.4237,54.14,49.12,0.0,9.31,93.1,0.0
01:13:20,4.6850,1.9873,11.4076,2.4347,54.39,49.35,0.0,9.31,93.1,0.0
01:13:40,4.6850,1.9884,11.4593,2.4458,54.64,49.57,0.0,9.32,93.2,0.0
01:14:00,4.6840,1.9881,11.5111,2.4568,54.88,49.79,0.0,9.31,93.1,0.0
01:14:20,4.6850,1.9879,11.5628,2.4679,55.13,50.02,0.0,9.31,93.1,0.0
01:14:40,4.6860,1.9872,11.6145,2.4789,55.38,50.24,0.0,9.31,93.1,0.0
01:15:00,4.6870,1.9879,11.6663,2.4900,55.62,50.46,0.0,9.32,93.2,0.0
01:15:20,4.6860,1.9879,11.7181,2.5010,55.87,50.69,0.0,9.32,93.2,0.0
01:15:40,4.6850,1.9878,11.7698,2.5120,56.12,50.91,0.0,9.31,93.1,0.0
01:16:00,4.6860,1.9875,11.8215,2.5231,56.36,51.14,0.0,9.31,93.1,0.0
01:16:20,4.6860,1.9875,11.8733,2.5341,56.61,51.36,0.0,9.31,93.1,0.0
01:16:40,4.6850,1.9872,11.9250,2.5452,56.86,51.58,0.0,9.31,93.1,0.0
01:17:00,4.6840,1.9890,11.9768,2.5562,57.10,51.81,0.0,9.32,93.2,0.0
01:17:20,4.6840,1.9875,12.0285,2.5673,57.35,52.03,0.0,9.31,93.1,0.0
01:17:40,4.6830,1.9878,12.0802,2.5783,57.60,52.26,0.0,9.31,93.1,0.0
01:18:00,4.6820,1.9878,12.1319,2.5893,57.84,52.48,0.0,9.31,93.1,0.0
01:18:20,4.6820,1.9874,12.1836,2.6004,58.09,52.70,0.0,9.31,93.1,0.0
01:18:40,4.6820,1.9878,12.2353,2.6114,58.34,52.93,0.0,9.31,93.1,0.0
01:19:00,4.6820,1.9870,12.2870,2.6225,58.58,53.15,0.0,9.3,93.0,0.0
01:19:20,4.6820,1.9878,12.3387,2.6335,58.83,53.37,0.0,9.31,93.1,0.0
01:19:40,4.6830,1.9871,12.3904,2.6445,59.08,53.60,0.0,9.31,93.1,0.0
01:20:00,4.6830,1.9887,12.4421,2.6556,59.32,53.82,0.0,9.31,93.1,0.0
01:20:20,4.6830,1.9881,12.4938,2.6666,59.57,54.05,0.0,9.31,93.1,0.0
01:20:40,4.6820,1.9878,12.5455,2.6777,59.82,54.27,0.0,9.31,93.1,0.0
01:21:00,4.6840,1.9877,12.5973,2.6887,60.06,54.49,0.0,9.31,93.1,0.0
01:21:20,4.6850,1.9875,12.6490,2.6998,60.31,54.72,0.0,9.31,93.1,0.0
01:21:40,4.6850,1.9882,12.7007,2.7108,60.55,54.94,0.0,9.31,93.1,0.0
01:22:00,4.6850,1.9876,12.7525,2.7218,60.80,55.16,0.0,9.31,93.1,0.0
01:22:20,4.6830,1.9878,12.8042,2.7329,61.05,55.39,0.0,9.31,93.1,0.0
01:22:40,4.6830,1.9880,12.8559,2.7439,61.29,55.61,0.0,9.31,93.1,0.0
01:23:00,4.6830,1.9875,12.9076,2.7550,61.54,55.84,0.0,9.31,93.1,0.0
01:23:20,4.6830,1.9885,12.9593,2.7660,61.79,56.06,0.0,9.31,93.1,0.0
01:23:40,4.6810,1.9884,13.0110,2.7771,62.03,56.28,0.0,9.31,93.1,0.0
01:24:00,4.6810,1.9875,13.0627,2.7881,62.28,56.51,0.0,9.3,93.0,0.0
01:24:20,4.6800,1.9885,13.1144,2.7992,62.53,56.73,0.0,9.31,93.1,0.0
01:24:40,4.6800,1.9873,13.1661,2.8102,62.77,56.96,0.0,9.3,93.0,0.0
01:25:00,4.6800,1.9874,13.2178,2.8212,63.02,57.18,0.0,9.3,93.0,0.0
01:25:20,4.6790,1.9877,13.2694,2.8323,63.27,57.40,0.0,9.3,93.0,0.0
01:25:40,4.6780,1.9877,13.3211,2.8433,63.51,57.63,0.0,9.3,93.0,0.0
01:26:00,4.6770,1.9877,13.3728,2.8544,63.76,57.85,0.0,9.3,93.0,0.0
01:26:20,4.6770,1.9882,13.4244,2.8654,64.01,58.07,0.0,9.3,93.0,0.0
01:26:40,4.6770,1.9877,13.4760,2.8764,64.25,58.30,0.0,9.3,93.0,0.0
01:27:00,4.6760,1.9874,13.5277,2.8875,64.50,58.52,0.0,9.29,92.9,0.0
01:27:20,4.6390,1.9869,13.5791,2.8985,64.74,58.75,0.0,9.22,92.2,0.0
01:27:40,4.6360,1.9867,13.6303,2.9096,64.99,58.97,0.0,9.21,92.1,0.0
01:28:00,4.6320,1.9879,13.6814,2.9206,65.23,59.19,0.0,9.21,92.1,0.0
01:28:20,4.6410,1.9885,13.7327,2.9317,65.48,59.42,0.0,9.23,92.3,0.0
01:28:40,4.6800,1.9878,13.7842,2.9427,65.72,59.64,0.0,9.3,93.0,0.0
01:29:00,4.6800,1.9878,13.8359,2.9537,65.97,59.86,0.0,9.3,93.0,0.0
01:29:20,4.6800,1.9878,13.8876,2.9648,66.21,60.09,0.0,9.3,93.0,0.0
01:29:40,4.6800,1.9878,13.9392,2.9758,66.46,60.31,0.0,9.3,93.0,0.0
01:30:00,4.6780,1.9883,13.9909,2.9869,66.71,60.54,0.0,9.3,93.0,0.0
01:30:20,4.5960,1.9875,14.0418,2.9979,66.95,60.76,0.0,9.13,91.3,0.0
01:30:40,4.5540,1.9873,14.0921,3.0090,67.19,60.98,0.0,9.05,90.5,0.0
01:31:00,4.4740,1.9872,14.1417,3.0200,67.43,61.21,0.0,8.89,88.9,0.0
01:31:20,4.3980,1.9869,14.1905,3.0310,67.66,61.43,0.0,8.74,87.4,0.0
01:31:40,4.3650,1.9877,14.2387,3.0421,67.89,61.65,0.0,8.68,86.8,0.0
01:32:00,4.3190,1.9875,14.2865,3.0531,68.12,61.88,0.0,8.58,85.8,0.0
01:32:20,4.3250,1.9872,14.3342,3.0642,68.34,62.10,0.0,8.59,85.9,0.0
01:32:40,4.2850,1.9873,14.3817,3.0752,68.57,62.33,0.0,8.52,85.2,0.0
01:33:00,4.2800,1.9860,14.4290,3.0862,68.79,62.55,0.0,8.5,85.0,0.0
01:33:20,4.1720,1.9885,14.4753,3.0973,69.02,62.77,0.0,8.3,83.0,0.0
01:33:40,4.2180,1.9870,14.5217,3.1083,69.24,63.00,0.0,8.38,83.8,0.0
01:34:00,4.2500,1.9873,14.5687,3.1194,69.46,63.22,0.0,8.45,84.5,0.0
01:34:20,4.2740,1.9855,14.6157,3.1304,69.69,63.44,0.0,8.49,84.9,0.0
01:34:40,4.2710,1.9867,14.6629,3.1414,69.91,63.67,0.0,8.49,84.9,0.0
01:35:00,4.2010,1.9875,14.7095,3.1525,70.13,63.89,0.0,8.35,83.5,0.0
01:35:20,4.0380,1.9849,14.7543,3.1635,70.35,64.12,0.0,8.02,80.2,0.0
01:35:40,4.0030,1.9854,14.7986,3.1745,70.56,64.34,0.0,7.95,79.5,0.0
01:36:00,3.9910,1.9825,14.8426,3.1855,70.77,64.56,0.0,7.91,79.1,0.0
01:36:20,3.9610,1.9778,14.8863,3.1965,70.98,64.79,0.0,7.83,78.3,0.0
01:36:40,3.9470,1.9731,14.9297,3.2075,71.18,65.01,0.0,7.79,77.9,0.0
01:37:00,3.9420,1.9698,14.9728,3.2185,71.39,65.23,0.0,7.76,77.6,0.0
01:37:20,3.9490,1.9735,15.0160,3.2294,71.59,65.45,0.0,7.79,77.9,0.0
01:37:40,3.9450,1.9726,15.0592,3.2404,71.80,65.67,0.0,7.78,77.8,0.0
01:38:00,3.9490,1.9738,15.1026,3.2513,72.01,65.90,0.0,7.79,77.9,0.0
01:38:20,3.9430,1.9702,15.1458,3.2623,72.21,66.12,0.0,7.77,77.7,0.0
01:38:40,3.9440,1.9722,15.1889,3.2733,72.42,66.34,0.0,7.78,77.8,0.0
01:39:00,3.9350,1.9669,15.2320,3.2842,72.62,66.56,0.0,7.74,77.4,0.0
01:39:20,3.9350,1.9679,15.2750,3.2951,72.83,66.78,0.0,7.74,77.4,0.0
01:39:40,3.9450,1.9722,15.3182,3.3061,73.03,67.01,0.0,7.78,77.8,0.0
01:40:00,3.9460,1.9728,15.3614,3.3170,73.24,67.23,0.0,7.78,77.8,0.0
01:40:20,3.9350,1.9677,15.4045,3.3280,73.45,67.45,0.0,7.74,77.4,0.0
01:40:40,3.9320,1.9661,15.4474,3.3389,73.65,67.67,0.0,7.73,77.3,0.0
01:41:00,3.9310,1.9655,15.4904,3.3498,73.86,67.89,0.0,7.73,77.3,0.0
01:41:20,3.9340,1.9669,15.5333,3.3607,74.06,68.11,0.0,7.74,77.4,0.0
01:41:40,3.9260,1.9633,15.5762,3.3716,74.26,68.33,0.0,7.71,77.1,0.0
01:42:00,3.9360,1.9678,15.6191,3.3826,74.47,68.56,0.0,7.75,77.5,0.0
01:42:20,3.9580,1.9705,15.6623,3.3935,74.68,68.78,0.0,7.8,78.0,0.0
01:42:40,3.9410,1.9708,15.7055,3.4045,74.88,69.00,0.0,7.77,77.7,0.0
01:43:00,3.9470,1.9732,15.7487,3.4154,75.09,69.22,0.0,7.79,77.9,0.0
01:43:20,3.9440,1.9718,15.7920,3.4264,75.29,69.44,0.0,7.78,77.8,0.0
01:43:40,3.9370,1.9682,15.8351,3.4373,75.50,69.67,0.0,7.75,77.5,0.0
01:44:00,3.9330,1.9656,15.8781,3.4482,75.70,69.89,0.0,7.73,77.3,0.0
01:44:20,3.9340,1.9660,15.9210,3.4592,75.91,70.11,0.0,7.73,77.3,0.0
01:44:40,3.9360,1.9678,15.9640,3.4701,76.11,70.33,0.0,7.75,77.5,0.0
01:45:00,2.5600,0.5710,15.9853,3.4766,76.22,70.46,0.0,1.46,14.6,0.0
01:45:20,2.5010,0.4016,15.9910,3.4788,76.24,70.51,0.0,1.0,10.0,0.0
01:45:40,2.4730,0.3485,15.9957,3.4808,76.27,70.55,0.0,0.86,8.6,0.0
01:46:00,2.4890,0.3837,16.0009,3.4828,76.29,70.59,0.0,0.96,9.6,0.0
01:46:20,2.7700,1.2410,16.0144,3.4878,76.35,70.69,0.0,3.44,34.4,0.0
01:46:40,3.8690,1.9287,16.0541,3.4983,76.54,70.90,0.0,7.46,74.6,0.0
01:47:00,3.9030,1.9490,16.0963,3.5091,76.74,71.12,0.0,7.61,76.1,0.0
01:47:20,3.8950,1.9448,16.1385,3.5199,76.95,71.34,0.0,7.57,75.7,0.0
01:47:40,3.8650,1.9296,16.1800,3.5307,77.14,71.56,0.0,7.46,74.6,0.0
01:48:00,3.8600,1.9270,16.2214,3.5414,77.34,71.77,0.0,7.44,74.4,0.0
01:48:20,3.8530,1.9236,16.2626,3.5521,77.54,71.99,0.0,7.41,74.1,0.0
01:48:40,3.8530,1.9241,16.3038,3.5628,77.73,72.21,0.0,7.41,74.1,0.0
01:49:00,3.8600,1.9261,16.3451,3.5735,77.93,72.42,0.0,7.43,74.3,0.0
01:49:20,3.8600,1.9285,16.3864,3.5842,78.13,72.64,0.0,7.44,74.4,0.0
01:49:40,3.8660,1.9297,16.4279,3.5949,78.33,72.86,0.0,7.46,74.6,0.0
01:50:00,3.8560,1.9247,16.4692,3.6056,78.52,73.08,0.0,7.42,74.2,0.0
01:50:20,3.8400,1.9178,16.5102,3.6163,78.72,73.29,0.0,7.36,73.6,0.0
01:50:40,3.8290,1.9107,16.5510,3.6269,78.91,73.51,0.0,7.32,73.2,0.0
01:51:00,3.8130,1.9030,16.5914,3.6375,79.10,73.72,0.0,7.26,72.6,0.0
01:51:20,3.8100,1.9003,16.6316,3.6480,79.30,73.94,0.0,7.24,72.4,0.0
01:51:40,3.8050,1.8978,16.6717,3.6586,79.49,74.15,0.0,7.22,72.2,0.0
01:52:00,3.7940,1.8920,16.7117,3.6691,79.68,74.36,0.0,7.18,71.8,0.0
01:52:20,3.7900,1.8903,16.7515,3.6796,79.87,74.58,0.0,7.16,71.6,0.0
01:52:40,3.7950,1.8916,16.7914,3.6901,80.06,74.79,0.0,7.18,71.8,0.0
01:53:00,3.7760,1.8823,16.8310,3.7006,80.25,75.00,0.0,7.11,71.1,0.0
01:53:20,3.7660,1.8775,16.8703,3.7110,80.44,75.21,0.0,7.07,70.7,0.0
01:53:40,3.7370,1.8615,16.9092,3.7214,80.62,75.42,0.0,6.96,69.6,0.0
01:54:00,3.6470,1.8147,16.9444,3.7313,80.79,75.62,0.0,6.62,66.2,0.0
01:54:20,3.7060,1.8395,16.9822,3.7415,80.97,75.83,0.0,6.82,68.2,0.0
01:54:40,3.7010,1.8390,17.0200,3.7517,81.15,76.04,0.0,6.81,68.1,0.0
01:55:00,3.6990,1.8375,17.0578,3.7619,81.33,76.24,0.0,6.8,68.0,0.0
01:55:20,3.6850,1.8289,17.0954,3.7721,81.51,76.45,0.0,6.74,67.4,0.0
01:55:40,3.6630,1.8212,17.1325,3.7822,81.68,76.66,0.0,6.67,66.7,0.0
01:56:00,3.6630,1.8183,17.1695,3.7923,81.86,76.86,0.0,6.66,66.6,0.0
01:56:20,3.6510,1.8174,17.2063,3.8024,82.04,77.06,0.0,6.64,66.4,0.0
01:56:40,3.6630,1.8214,17.2432,3.8125,82.21,77.27,0.0,6.67,66.7,0.0
01:57:00,3.6770,1.8271,17.2805,3.8227,82.39,77.48,0.0,6.72,67.2,0.0
01:57:20,3.6770,1.8274,17.3178,3.8328,82.57,77.68,0.0,6.72,67.2,0.0
01:57:40,3.6730,1.8235,17.3551,3.8430,82.75,77.89,0.0,6.7,67.0,0.0
01:58:00,3.6730,1.8242,17.3923,3.8531,82.92,78.09,0.0,6.7,67.0,0.0
01:58:20,3.6690,1.8166,17.4294,3.8632,83.10,78.30,0.0,6.67,66.7,0.0
01:58:40,3.6560,1.8216,17.4664,3.8733,83.28,78.50,0.0,6.66,66.6,0.0
01:59:00,3.6680,1.8216,17.5036,3.8834,83.45,78.71,0.0,6.68,66.8,0.0
01:59:20,3.6630,1.8209,17.5407,3.8936,83.63,78.91,0.0,6.67,66.7,0.0
01:59:40,3.6560,1.8161,17.5777,3.9037,83.81,79.12,0.0,6.64,66.4,0.0
02:00:00,3.6510,1.8153,17.6145,3.9138,83.98,79.32,0.0,6.63,66.3,0.0
02:00:20,3.6550,1.8182,17.6514,3.9239,84.16,79.53,0.0,6.65,66.5,0.0
02:00:40,3.6560,1.8202,17.6884,3.9340,84.34,79.73,0.0,6.65,66.5,0.0
02:01:00,3.6590,1.8200,17.7254,3.9441,84.51,79.94,0.0,6.66,66.6,0.0
02:01:20,3.6660,1.8228,17.7625,3.9542,84.69,80.14,0.0,6.68,66.8,0.0
02:01:40,3.6680,1.8220,17.7996,3.9643,84.87,80.35,0.0,6.68,66.8,0.0
02:02:00,3.6600,1.8194,17.8366,3.9744,85.04,80.55,0.0,6.66,66.6,0.0
02:02:20,3.6550,1.8191,17.8735,3.9845,85.22,80.76,0.0,6.65,66.5,0.0
02:02:40,3.6470,1.8159,17.9104,3.9946,85.39,80.96,0.0,6.62,66.2,0.0
02:03:00,3.6500,1.8161,17.9472,4.0047,85.57,81.16,0.0,6.63,66.3,0.0
02:03:20,3.6420,1.8140,17.9840,4.0148,85.74,81.37,0.0,6.61,66.1,0.0
02:03:40,3.6330,1.8090,18.0205,4.0249,85.92,81.57,0.0,6.57,65.7,0.0
02:04:00,3.6320,1.8088,18.0570,4.0349,86.09,81.78,0.0,6.57,65.7,0.0
02:04:20,3.6150,1.7986,18.0933,4.0449,86.27,81.98,0.0,6.5,65.0,0.0
02:04:40,3.5960,1.7877,18.1291,4.0549,86.44,82.18,0.0,6.43,64.3,0.0
02:05:00,3.5450,1.7686,18.1643,4.0647,86.60,82.38,0.0,6.27,62.7,0.0
02:05:20,3.5150,1.7510,18.1986,4.0745,86.77,82.58,0.0,6.15,61.5,0.0
02:05:40,3.5220,1.7547,18.2328,4.0842,86.93,82.78,0.0,6.18,61.8,0.0
02:06:00,3.5380,1.7645,18.2674,4.0940,87.10,82.97,0.0,6.24,62.4,0.0
02:06:20,3.5530,1.7718,18.3023,4.1038,87.26,83.17,0.0,6.3,63.0,0.0
02:06:40,3.5580,1.7760,18.3373,4.1137,87.43,83.37,0.0,6.32,63.2,0.0
02:07:00,3.5550,1.7721,18.3724,4.1235,87.60,83.57,0.0,6.3,63.0,0.0
02:07:20,3.5120,1.7495,18.4067,4.1333,87.76,83.77,0.0,6.14,61.4,0.0
02:07:40,2.8910,1.5003,18.4353,4.1422,87.90,83.95,0.0,4.34,43.4,0.0
02:08:00,2.7470,1.1330,18.4540,4.1490,87.99,84.09,0.0,3.11,31.1,0.0
02:08:20,3.1990,1.6432,18.4796,4.1574,88.11,84.26,0.0,5.26,52.6,0.0
02:08:40,3.3910,1.6914,18.5108,4.1667,88.26,84.45,0.0,5.74,57.4,0.0
02:09:00,3.4490,1.7180,18.5435,4.1763,88.41,84.64,0.0,5.93,59.3,0.0
02:09:20,3.4400,1.7146,18.5764,4.1858,88.57,84.83,0.0,5.9,59.0,0.0
02:09:40,3.4430,1.7150,18.6092,4.1953,88.73,85.03,0.0,5.9,59.0,0.0
02:10:00,3.4470,1.7176,18.6420,4.2049,88.88,85.22,0.0,5.92,59.2,0.0
02:10:20,3.4490,1.7184,18.6749,4.2144,89.04,85.41,0.0,5.93,59.3,0.0
02:10:40,3.4500,1.7185,18.7079,4.2239,89.20,85.61,0.0,5.93,59.3,0.0
02:11:00,3.4500,1.7196,18.7409,4.2335,89.35,85.80,0.0,5.93,59.3,0.0
02:11:20,3.4600,1.7236,18.7740,4.2431,89.51,86.00,0.0,5.96,59.6,0.0
02:11:40,3.4640,1.7258,18.8072,4.2527,89.67,86.19,0.0,5.98,59.8,0.0
02:12:00,3.4590,1.7236,18.8403,4.2622,89.83,86.38,0.0,5.96,59.6,0.0
02:12:20,3.4560,1.7219,18.8734,4.2718,89.99,86.58,0.0,5.95,59.5,0.0
02:12:40,3.4480,1.7182,18.9063,4.2814,90.14,86.77,0.0,5.92,59.2,0.0
02:13:00,3.4360,1.7113,18.9391,4.2909,90.30,86.96,0.0,5.88,58.8,0.0
02:13:20,3.4340,1.7108,18.9717,4.3004,90.45,87.16,0.0,5.87,58.7,0.0
02:13:40,3.4260,1.7081,19.0043,4.3099,90.61,87.35,0.0,5.85,58.5,0.0
02:14:00,3.4170,1.7033,19.0367,4.3194,90.76,87.54,0.0,5.82,58.2,0.0
02:14:20,3.4160,1.7032,19.0691,4.3288,90.92,87.73,0.0,5.82,58.2,0.0
02:14:40,3.4060,1.6995,19.1013,4.3383,91.07,87.93,0.0,5.79,57.9,0.0
02:15:00,3.3920,1.6941,19.1332,4.3477,91.22,88.12,0.0,5.75,57.5,0.0
02:15:20,3.3890,1.6946,19.1652,4.3571,91.38,88.31,0.0,5.74,57.4,0.0
02:15:40,3.3900,1.6946,19.1971,4.3665,91.53,88.50,0.0,5.74,57.4,0.0
02:16:00,3.3900,1.6953,19.2290,4.3759,91.68,88.69,0.0,5.75,57.5,0.0
02:16:20,3.3790,1.6916,19.2608,4.3853,91.83,88.88,0.0,5.72,57.2,0.0
02:16:40,3.3700,1.6867,19.2925,4.3947,91.98,89.07,0.0,5.68,56.8,0.0
02:17:00,3.3610,1.6804,19.3239,4.4041,92.13,89.26,0.0,5.65,56.5,0.0
02:17:20,3.3590,1.6810,19.3553,4.4134,92.28,89.45,0.0,5.65,56.5,0.0
02:17:40,3.3560,1.6789,19.3866,4.4227,92.43,89.64,0.0,5.63,56.3,0.0
02:18:00,3.3510,1.6770,19.4179,4.4320,92.58,89.83,0.0,5.62,56.2,0.0
02:18:20,3.3490,1.6746,19.4490,4.4414,92.73,90.01,0.0,5.61,56.1,0.0
02:18:40,3.3420,1.6734,19.4801,4.4506,92.88,90.20,0.0,5.59,55.9,0.0
02:19:00,3.3370,1.6699,19.5111,4.4599,93.03,90.39,0.0,5.57,55.7,0.0
02:19:20,3.3310,1.6668,19.5419,4.4692,93.17,90.58,0.0,5.55,55.5,0.0
02:19:40,3.3190,1.6631,19.5726,4.4784,93.32,90.77,0.0,5.52,55.2,0.0
02:20:00,3.3020,1.6583,19.6031,4.4877,93.46,90.95,0.0,5.48,54.8,0.0
02:20:20,3.2970,1.6543,19.6334,4.4969,93.61,91.14,0.0,5.45,54.5,0.0
02:20:40,3.2930,1.6527,19.6637,4.5060,93.75,91.33,0.0,5.44,54.4,0.0
02:21:00,3.2910,1.6515,19.6939,4.5152,93.90,91.51,0.0,5.44,54.4,0.0
02:21:20,3.2900,1.6507,19.7240,4.5244,94.04,91.70,0.0,5.43,54.3,0.0
02:21:40,3.2860,1.6493,19.7542,4.5335,94.18,91.88,0.0,5.42,54.2,0.0
02:22:00,3.2810,1.6472,19.7842,4.5427,94.33,92.07,0.0,5.4,54.0,0.0
02:22:20,3.2730,1.6430,19.8141,4.5518,94.47,92.25,0.0,5.38,53.8,0.0
02:22:40,3.2680,1.6417,19.8439,4.5610,94.61,92.44,0.0,5.37,53.7,0.0
02:23:00,3.2560,1.6372,19.8736,4.5701,94.75,92.62,0.0,5.33,53.3,0.0
02:23:20,3.2500,1.6345,19.9031,4.5791,94.89,92.81,0.0,5.31,53.1,0.0
02:23:40,3.2380,1.6315,19.9326,4.5882,95.04,92.99,0.0,5.28,52.8,0.0
02:24:00,3.2300,1.6285,19.9618,4.5973,95.17,93.17,0.0,5.26,52.6,0.0
02:24:20,3.2270,1.6266,19.9910,4.6063,95.31,93.36,0.0,5.25,52.5,0.0
02:24:40,3.2250,1.6248,20.0201,4.6153,95.45,93.54,0.0,5.24,52.4,0.0
02:25:00,3.2100,1.6190,20.0491,4.6243,95.59,93.72,0.0,5.2,52.0,0.0
02:25:20,3.2030,1.6158,20.0779,4.6333,95.73,93.91,0.0,5.18,51.8,0.0
02:25:40,3.1990,1.6148,20.1066,4.6423,95.86,94.09,0.0,5.17,51.7,0.0
02:26:00,3.1970,1.6134,20.1353,4.6513,96.00,94.27,0.0,5.16,51.6,0.0
02:26:20,3.1850,1.6090,20.1638,4.6602,96.14,94.45,0.0,5.12,51.2,0.0
02:26:40,3.1730,1.6035,20.1921,4.6691,96.27,94.63,0.0,5.09,50.9,0.0
02:27:00,3.0570,1.5980,20.2197,4.6780,96.40,94.81,0.0,4.89,48.9,0.0
02:27:20,3.0410,1.5908,20.2466,4.6869,96.53,94.99,0.0,4.84,48.4,0.0
02:27:40,3.0340,1.5889,20.2734,4.6957,96.66,95.17,0.0,4.82,48.2,0.0
02:28:00,3.0280,1.5846,20.3001,4.7045,96.79,95.35,0.0,4.8,48.0,0.0
02:28:20,3.0230,1.5820,20.3267,4.7133,96.91,95.53,0.0,4.78,47.8,0.0
02:28:40,3.0200,1.5797,20.3532,4.7221,97.04,95.70,0.0,4.77,47.7,0.0
02:29:00,3.0150,1.5752,20.3796,4.7308,97.17,95.88,0.0,4.75,47.5,0.0
02:29:20,2.9990,1.5679,20.4058,4.7395,97.29,96.06,0.0,4.7,47.0,0.0
02:29:40,2.9830,1.5594,20.4318,4.7482,97.42,96.23,0.0,4.65,46.5,0.0
02:30:00,2.9690,1.5527,20.4574,4.7569,97.54,96.41,0.0,4.61,46.1,0.0
02:30:20,2.9630,1.5489,20.4830,4.7655,97.66,96.58,0.0,4.59,45.9,0.0
02:30:40,2.9550,1.5439,20.5084,4.7740,97.78,96.76,0.0,4.56,45.6,0.0
02:31:00,2.9320,1.5312,20.5334,4.7826,97.90,96.93,0.0,4.49,44.9,0.0
02:31:20,2.9040,1.5179,20.5581,4.7910,98.02,97.10,0.0,4.41,44.1,0.0
02:31:40,2.8810,1.5050,20.5822,4.7994,98.13,97.27,0.0,4.34,43.4,0.0
02:32:00,2.8450,1.4814,20.6061,4.8077,98.25,97.44,0.0,4.21,42.1,0.0
02:32:20,2.9020,1.5127,20.6203,4.8123,98.31,97.53,0.0,4.39,43.9,0.0
02:32:40,2.9380,1.5319,20.6451,4.8208,98.43,97.71,0.0,4.5,45.0,0.0
02:33:00,2.9430,1.5337,20.6701,4.8293,98.55,97.88,0.0,4.51,45.1,0.0
02:33:20,2.8770,1.4984,20.6944,4.8377,98.67,98.05,0.0,4.31,43.1,0.0
02:33:40,5.1190,0.1539,20.7082,4.8422,98.73,98.14,0.0,0.79,7.9,0.0
02:34:00,2.6950,1.2639,20.7178,4.8458,98.78,98.21,0.0,3.41,34.1,0.0
02:34:20,2.8320,1.4761,20.7397,4.8536,98.88,98.37,0.0,4.18,41.8,0.0
02:34:40,2.8750,1.5011,20.7635,4.8619,99.00,98.54,0.0,4.32,43.2,0.0
02:35:00,2.8770,1.5010,20.7875,4.8703,99.11,98.71,0.0,4.32,43.2,0.0
02:35:20,2.9100,1.5187,20.8119,4.8787,99.23,98.88,0.0,4.42,44.2,0.0
02:35:40,2.9010,1.5132,20.8261,4.8833,99.30,98.97,0.0,4.39,43.9,0.0
02:36:00,2.9070,1.5208,20.8505,4.8917,99.41,99.14,0.0,4.42,44.2,0.0
02:36:20,2.9150,1.5233,20.8751,4.9002,99.53,99.31,0.0,4.44,44.4,0.0
02:36:40,2.8990,1.5138,20.8996,4.9086,99.65,99.48,0.0,4.39,43.9,0.0
02:37:00,5.1290,0.1385,20.9137,4.9132,99.71,99.58,0.0,0.71,7.1,0.0
02:37:20,2.8730,1.4997,20.9379,4.9215,99.83,99.75,0.0,4.31,43.1,0.0
02:37:40,2.8660,1.4964,20.9617,4.9298,99.94,99.91,0.0,4.29,42.9,0.0
02:38:00,2.8820,1.5058,20.9859,4.9382,100.06,100.08,0.0,4.34,43.4,0.0