File: output/1/nekteck-a.csv
Time,Voltage(V),Current(A),Energy(Wh),Capacity(Ah),Energy Proportion(%),Capacity Proportion(%),Irradiance(W/m2),Irradiance/100,Power(W),Efficiency(%)
00:00:00,4.6620,2.0042,0.0260,0.0056,0.26,0.26,855,8.55,9.34,0.85
00:00:10,4.6570,2.0031,0.0519,0.0111,0.51,0.51,854,8.54,9.33,0.85
00:00:20,4.6680,2.0022,0.0778,0.0167,0.77,0.77,849,8.49,9.35,0.85
00:00:30,4.6680,2.0022,0.1038,0.0223,1.03,1.03,850,8.5,9.35,0.85
00:00:40,4.6670,2.0018,0.1297,0.0278,1.29,1.28,853,8.53,9.34,0.85
00:00:50,4.6650,2.0016,0.1557,0.0334,1.55,1.54,849,8.49,9.34,0.85
00:01:00,4.6650,2.0011,0.1816,0.0389,1.80,1.80,847,8.47,9.34,0.85
00:01:10,4.6640,2.0008,0.2075,0.0445,2.06,2.05,850,8.5,9.33,0.85
00:01:20,4.6640,2.0010,0.2335,0.0501,2.32,2.31,848,8.48,9.33,0.85
00:01:30,4.6630,1.9997,0.2594,0.0556,2.57,2.57,846,8.46,9.32,0.85
00:01:40,4.6620,2.0009,0.2853,0.0612,2.83,2.82,844,8.44,9.33,0.86
00:01:50,4.6620,2.0000,0.3112,0.0667,3.09,3.08,845,8.45,9.32,0.86
00:02:00,4.6620,2.0000,0.3371,0.0723,3.35,3.34,846,8.46,9.32,0.85
00:02:10,4.6610,2.0000,0.3630,0.0778,3.60,3.59,840,8.4,9.32,0.86
00:02:20,4.6600,1.9990,0.3888,0.0834,3.86,3.85,839,8.39,9.32,0.86
00:02:30,4.6600,1.9995,0.4147,0.0889,4.12,4.10,840,8.4,9.32,0.86
00:02:40,4.6600,1.9984,0.4406,0.0945,4.37,4.36,837,8.37,9.31,0.86
00:02:50,4.6590,2.0015,0.4665,0.1000,4.63,4.62,838,8.38,9.32,0.86
00:03:00,4.6590,2.0009,0.4924,0.1056,4.89,4.87,836,8.36,9.32,0.86
00:03:10,4.6590,2.0004,0.5183,0.1112,5.14,5.13,840,8.4,9.32,0.86
00:03:20,4.6590,1.9999,0.5442,0.1167,5.40,5.39,839,8.39,9.32,0.86
00:03:30,4.6590,2.0005,0.5700,0.1223,5.66,5.64,836,8.36,9.32,0.86
00:03:40,4.6590,2.0010,0.5959,0.1278,5.92,5.90,837,8.37,9.32,0.86
00:03:50,4.6580,1.9991,0.6218,0.1334,6.17,6.16,839,8.39,9.31,0.86
00:04:00,4.6570,2.0004,0.6477,0.1389,6.43,6.41,837,8.37,9.32,0.86
00:04:10,4.6570,1.9997,0.6736,0.1445,6.69,6.67,838,8.38,9.31,0.86
00:04:20,4.6560,2.0007,0.6994,0.1501,6.94,6.93,838,8.38,9.32,0.86
00:04:30,4.6560,1.9998,0.7253,0.1556,7.20,7.18,834,8.34,9.31,0.87
00:04:40,4.6560,1.9998,0.7512,0.1612,7.46,7.44,839,8.39,9.31,0.86
00:04:50,4.6550,2.0002,0.7770,0.1667,7.71,7.69,838,8.38,9.31,0.86
00:05:00,4.6550,1.9999,0.8029,0.1723,7.97,7.95,835,8.35,9.31,0.86
00:05:10,4.6550,1.9998,0.8287,0.1778,8.23,8.21,836,8.36,9.31,0.86
00:05:20,4.6550,1.9994,0.8546,0.1834,8.48,8.46,838,8.38,9.31,0.86
00:05:30,4.6560,1.9995,0.8805,0.1889,8.74,8.72,840,8.4,9.31,0.86
00:05:40,4.6560,2.0000,0.9063,0.1945,9.00,8.98,838,8.38,9.31,0.86
00:05:50,4.6560,1.9999,0.9322,0.2000,9.25,9.23,840,8.4,9.31,0.86
00:06:00,4.6560,2.0003,0.9581,0.2056,9.51,9.49,839,8.39,9.31,0.86
00:06:10,4.6560,2.0000,0.9839,0.2112,9.77,9.75,833,8.33,9.31,0.87
00:06:20,4.6550,2.0006,1.0098,0.2167,10.02,10.00,835,8.35,9.31,0.86
00:06:30,4.6560,1.9988,1.0356,0.2223,10.28,10.26,837,8.37,9.31,0.86
00:06:40,4.6570,1.9991,1.0615,0.2278,10.54,10.51,837,8.37,9.31,0.86
00:06:50,4.6580,1.9993,1.0874,0.2334,10.79,10.77,838,8.38,9.31,0.86
00:07:00,4.6570,1.9999,1.1132,0.2389,11.05,11.03,834,8.34,9.31,0.87
00:07:10,4.6570,2.0000,1.1391,0.2445,11.31,11.28,833,8.33,9.31,0.87
00:07:20,4.6570,1.9999,1.1650,0.2500,11.56,11.54,832,8.32,9.31,0.87
00:07:30,4.6560,1.9995,1.1908,0.2556,11.82,11.80,834,8.34,9.31,0.87
00:07:40,4.6560,1.9993,1.2167,0.2612,12.08,12.05,832,8.32,9.31,0.87
00:07:50,4.6550,2.0004,1.2426,0.2667,12.33,12.31,833,8.33,9.31,0.87
00:08:00,4.6550,2.0011,1.2684,0.2723,12.59,12.57,833,8.33,9.32,0.87
00:08:10,4.6550,1.9993,1.2943,0.2778,12.85,12.82,836,8.36,9.31,0.86
00:08:20,4.6550,2.0001,1.3202,0.2834,13.10,13.08,832,8.32,9.31,0.87
00:08:30,4.6550,2.0009,1.3460,0.2889,13.36,13.34,837,8.37,9.31,0.86
00:08:40,4.6550,2.0000,1.3719,0.2945,13.62,13.59,836,8.36,9.31,0.86
00:08:50,4.6540,2.0000,1.3978,0.3000,13.87,13.85,829,8.29,9.31,0.87
00:09:00,4.6540,1.9998,1.4236,0.3056,14.13,14.10,830,8.3,9.31,0.87
00:09:10,4.6540,2.0008,1.4495,0.3112,14.39,14.36,829,8.29,9.31,0.87
00:09:20,4.6540,2.0005,1.4753,0.3167,14.64,14.62,831,8.31,9.31,0.87
00:09:30,4.6540,2.0003,1.5012,0.3223,14.90,14.87,835,8.35,9.31,0.86
00:09:40,4.6540,2.0009,1.5271,0.3278,15.16,15.13,838,8.38,9.31,0.86
00:09:50,4.6550,1.9995,1.5529,0.3334,15.41,15.39,835,8.35,9.31,0.86
00:10:00,4.6550,2.0005,1.5788,0.3389,15.67,15.64,833,8.33,9.31,0.87
00:10:10,4.6540,2.0005,1.6046,0.3445,15.93,15.90,834,8.34,9.31,0.87
00:10:20,4.6550,1.9983,1.6305,0.3500,16.18,16.16,837,8.37,9.3,0.86
00:10:30,4.6550,1.9992,1.6563,0.3556,16.44,16.41,833,8.33,9.31,0.87
00:10:40,4.6550,1.9998,1.6822,0.3612,16.70,16.67,833,8.33,9.31,0.87
00:10:50,4.6550,2.0001,1.7081,0.3667,16.95,16.92,832,8.32,9.31,0.87
00:11:00,4.6550,2.0006,1.7339,0.3723,17.21,17.18,832,8.32,9.31,0.87
00:11:10,4.6540,1.9991,1.7598,0.3778,17.47,17.44,830,8.3,9.3,0.87
00:11:20,4.6550,1.9995,1.7856,0.3834,17.72,17.69,829,8.29,9.31,0.87
00:11:30,4.6550,2.0000,1.8115,0.3889,17.98,17.95,836,8.36,9.31,0.86
00:11:40,4.6540,2.0009,1.8373,0.3945,18.24,18.21,831,8.31,9.31,0.87
00:11:50,4.6530,2.0008,1.8632,0.4000,18.49,18.46,830,8.3,9.31,0.87
00:12:00,4.6530,1.9998,1.8891,0.4056,18.75,18.72,831,8.31,9.31,0.87
00:12:10,4.6520,2.0009,1.9149,0.4112,19.01,18.98,832,8.32,9.31,0.87
00:12:20,4.6520,1.9994,1.9408,0.4167,19.26,19.23,833,8.33,9.3,0.87
00:12:30,4.6520,2.0010,1.9666,0.4223,19.52,19.49,835,8.35,9.31,0.86
00:12:40,4.6510,2.0000,1.9924,0.4278,19.78,19.75,832,8.32,9.3,0.87
00:12:50,4.6520,2.0005,2.0183,0.4334,20.03,20.00,829,8.29,9.31,0.87
00:13:00,4.6510,1.9995,2.0441,0.4389,20.29,20.26,828,8.28,9.3,0.87
00:13:10,4.6510,2.0003,2.0700,0.4445,20.55,20.51,831,8.31,9.3,0.87
00:13:20,4.6520,1.9993,2.0958,0.4501,20.80,20.77,833,8.33,9.3,0.87
00:13:30,4.6520,2.0002,2.1217,0.4556,21.06,21.03,831,8.31,9.3,0.87
00:13:40,4.6520,1.9999,2.1475,0.4612,21.32,21.28,830,8.3,9.3,0.87
00:13:50,4.6520,2.0000,2.1733,0.4667,21.57,21.54,833,8.33,9.3,0.87
00:14:00,4.6520,1.9994,2.1992,0.4723,21.83,21.80,834,8.34,9.3,0.86
00:14:10,4.6520,1.9998,2.2250,0.4778,22.08,22.05,829,8.29,9.3,0.87
00:14:20,4.6530,1.9998,2.2509,0.4834,22.34,22.31,827,8.27,9.31,0.87
00:14:30,4.6540,2.0005,2.2767,0.4889,22.60,22.57,829,8.29,9.31,0.87
00:14:40,4.6540,2.0003,2.3026,0.4945,22.85,22.82,828,8.28,9.31,0.87
00:14:50,4.6530,2.0005,2.3284,0.5001,23.11,23.08,830,8.3,9.31,0.87
00:15:00,4.6540,1.9994,2.3543,0.5056,23.37,23.33,825,8.25,9.31,0.87
00:15:10,4.6540,2.0005,2.3802,0.5112,23.62,23.59,826,8.26,9.31,0.87
00:15:20,4.6540,2.0003,2.4060,0.5167,23.88,23.85,828,8.28,9.31,0.87
00:15:30,4.6530,1.9990,2.4319,0.5223,24.14,24.10,828,8.28,9.3,0.87
00:15:40,4.6530,1.9997,2.4577,0.5278,24.39,24.36,821,8.21,9.3,0.88
00:15:50,4.6530,1.9999,2.4835,0.5334,24.65,24.62,824,8.24,9.31,0.88
00:16:00,4.6530,1.9992,2.5094,0.5389,24.91,24.87,824,8.24,9.3,0.87
00:16:10,4.6520,1.9999,2.5352,0.5445,25.16,25.13,820,8.2,9.3,0.88
00:16:20,4.6510,2.0000,2.5611,0.5500,25.42,25.39,822,8.22,9.3,0.88
00:16:30,4.6510,2.0004,2.5869,0.5556,25.68,25.64,824,8.24,9.3,0.87
00:16:40,4.6510,1.9993,2.6127,0.5612,25.93,25.90,822,8.22,9.3,0.88
00:16:50,4.6500,1.9990,2.6386,0.5667,26.19,26.16,824,8.24,9.3,0.87
00:17:00,4.6500,1.9989,2.6644,0.5723,26.45,26.41,824,8.24,9.29,0.87
00:17:10,4.6500,2.0002,2.6902,0.5778,26.70,26.67,825,8.25,9.3,0.87
00:17:20,4.6500,2.0008,2.7161,0.5834,26.96,26.92,828,8.28,9.3,0.87
00:17:30,4.6500,2.0000,2.7419,0.5889,27.21,27.18,826,8.26,9.3,0.87
00:17:40,4.6490,2.0015,2.7677,0.5945,27.47,27.44,826,8.26,9.3,0.87
00:17:50,4.6490,2.0002,2.7936,0.6000,27.73,27.69,824,8.24,9.3,0.87
00:18:00,4.6500,2.0001,2.8194,0.6056,27.98,27.95,827,8.27,9.3,0.87
00:18:10,4.6510,2.0017,2.8453,0.6112,28.24,28.21,832,8.32,9.31,0.87
00:18:20,4.6510,2.0010,2.8711,0.6167,28.50,28.46,830,8.3,9.31,0.87
00:18:30,4.6510,1.9994,2.8970,0.6223,28.75,28.72,830,8.3,9.3,0.87
00:18:40,4.6510,2.0007,2.9228,0.6278,29.01,28.98,828,8.28,9.31,0.87
00:18:50,4.6500,1.9998,2.9486,0.6334,29.27,29.23,835,8.35,9.3,0.86
00:19:00,4.6500,1.9994,2.9745,0.6389,29.52,29.49,835,8.35,9.3,0.86
00:19:10,4.6500,2.0002,3.0003,0.6445,29.78,29.75,834,8.34,9.3,0.86
00:19:20,4.6500,2.0007,3.0261,0.6501,30.04,30.00,835,8.35,9.3,0.86
00:19:30,4.6500,1.9990,3.0520,0.6556,30.29,30.26,836,8.36,9.3,0.86
00:19:40,4.6500,2.0000,3.0778,0.6612,30.55,30.51,833,8.33,9.3,0.87
00:19:50,4.6500,2.0001,3.1036,0.6667,30.81,30.77,835,8.35,9.3,0.86
00:20:00,4.6490,1.9994,3.1294,0.6723,31.06,31.03,836,8.36,9.3,0.86
00:20:10,4.6490,1.9999,3.1553,0.6778,31.32,31.28,833,8.33,9.3,0.87
00:20:20,4.6500,1.9991,3.1811,0.6834,31.57,31.54,838,8.38,9.3,0.86
00:20:30,4.6510,1.9997,3.2069,0.6889,31.83,31.80,837,8.37,9.3,0.86
00:20:40,4.6520,2.0025,3.2328,0.6945,32.09,32.05,837,8.37,9.32,0.86
00:20:50,4.6520,2.0012,3.2587,0.7001,32.34,32.31,837,8.37,9.31,0.86
00:21:00,4.6510,2.0000,3.2845,0.7056,32.60,32.57,837,8.37,9.3,0.86
00:21:10,4.6510,2.0002,3.3103,0.7112,32.86,32.82,838,8.38,9.3,0.86
00:21:20,4.6500,1.9995,3.3362,0.7167,33.11,33.08,837,8.37,9.3,0.86
00:21:30,4.6500,1.9995,3.3620,0.7223,33.37,33.33,833,8.33,9.3,0.87
00:21:40,4.6500,2.0007,3.3878,0.7278,33.63,33.59,834,8.34,9.3,0.86
00:21:50,4.6500,2.0001,3.4137,0.7334,33.88,33.85,833,8.33,9.3,0.87
00:22:00,4.6500,1.9992,3.4395,0.7389,34.14,34.10,833,8.33,9.3,0.87
00:22:10,4.6500,1.9998,3.4653,0.7445,34.40,34.36,834,8.34,9.3,0.86
00:22:20,4.6510,2.0004,3.4912,0.7501,34.65,34.62,831,8.31,9.3,0.87
00:22:30,4.6500,2.0014,3.5170,0.7556,34.91,34.87,833,8.33,9.31,0.87
00:22:40,4.6490,1.9998,3.5428,0.7612,35.16,35.13,835,8.35,9.3,0.86
00:22:50,4.6500,1.9996,3.5687,0.7667,35.42,35.39,832,8.32,9.3,0.87
00:23:00,4.6510,2.0007,3.5945,0.7723,35.68,35.64,836,8.36,9.31,0.86
00:23:10,4.6500,2.0000,3.6204,0.7778,35.93,35.90,837,8.37,9.3,0.86
00:23:20,4.6490,1.9993,3.6462,0.7834,36.19,36.16,837,8.37,9.29,0.86
00:23:30,4.6490,1.9996,3.6720,0.7889,36.45,36.41,832,8.32,9.3,0.87
00:23:40,4.6490,2.0004,3.6978,0.7945,36.70,36.67,834,8.34,9.3,0.86
00:23:50,4.6480,2.0010,3.7237,0.8001,36.96,36.92,834,8.34,9.3,0.86
00:24:00,4.6490,2.0000,3.7495,0.8056,37.22,37.18,837,8.37,9.3,0.86
00:24:10,4.6480,2.0002,3.7753,0.8112,37.47,37.44,836,8.36,9.3,0.86
00:24:20,4.6470,2.0000,3.8011,0.8167,37.73,37.69,834,8.34,9.29,0.86
00:24:30,4.6480,1.9997,3.8270,0.8223,37.98,37.95,840,8.4,9.29,0.86
00:24:40,4.6470,2.0015,3.8528,0.8278,38.24,38.21,837,8.37,9.3,0.86
00:24:50,4.6470,2.0002,3.8786,0.8334,38.50,38.46,836,8.36,9.29,0.86
00:25:00,4.6470,2.0002,3.9044,0.8390,38.75,38.72,836,8.36,9.29,0.86
00:25:10,4.6470,1.9993,3.9302,0.8445,39.01,38.98,837,8.37,9.29,0.86
00:25:20,4.6470,1.9993,3.9560,0.8501,39.27,39.23,838,8.38,9.29,0.86
00:25:30,4.6470,1.9991,3.9818,0.8556,39.52,39.49,838,8.38,9.29,0.86
00:25:40,4.6470,1.9995,4.0077,0.8612,39.78,39.75,836,8.36,9.29,0.86
00:25:50,4.6470,2.0002,4.0335,0.8667,40.03,40.00,839,8.39,9.29,0.86
00:26:00,4.6470,1.9999,4.0593,0.8723,40.29,40.26,838,8.38,9.29,0.86
00:26:10,4.6470,1.9999,4.0851,0.8778,40.55,40.51,835,8.35,9.29,0.86
00:26:20,4.6480,2.0004,4.1109,0.8834,40.80,40.77,839,8.39,9.3,0.86
00:26:30,4.6480,1.9999,4.1368,0.8889,41.06,41.03,838,8.38,9.3,0.86
00:26:40,4.6490,1.9969,4.1625,0.8945,41.32,41.28,839,8.39,9.28,0.86
00:26:50,4.6490,2.0001,4.1884,0.9001,41.57,41.54,840,8.4,9.3,0.86
00:27:00,4.6490,1.9999,4.2142,0.9056,41.83,41.80,835,8.35,9.3,0.86
00:27:10,4.6490,1.9996,4.2400,0.9112,42.08,42.05,840,8.4,9.3,0.86
00:27:20,4.6490,2.0005,4.2659,0.9167,42.34,42.31,833,8.33,9.3,0.87
00:27:30,4.6490,2.0004,4.2917,0.9223,42.60,42.57,837,8.37,9.3,0.86
00:27:40,4.6500,1.9992,4.3175,0.9278,42.85,42.82,835,8.35,9.3,0.86
00:27:50,4.6490,1.9998,4.3433,0.9334,43.11,43.08,838,8.38,9.3,0.86
00:28:00,4.6490,2.0005,4.3692,0.9389,43.37,43.33,836,8.36,9.3,0.86
00:28:10,4.6490,2.0008,4.3950,0.9445,43.62,43.59,836,8.36,9.3,0.86
00:28:20,4.6490,2.0005,4.4208,0.9501,43.88,43.85,841,8.41,9.3,0.86
00:28:30,4.6490,1.9997,4.4467,0.9556,44.14,44.10,840,8.4,9.3,0.86
00:28:40,4.6500,1.9991,4.4725,0.9612,44.39,44.36,838,8.38,9.3,0.86
00:28:50,4.6500,1.9986,4.4983,0.9667,44.65,44.62,840,8.4,9.29,0.86
00:29:00,4.6500,1.9999,4.5241,0.9723,44.90,44.87,838,8.38,9.3,0.86
00:29:10,4.6500,1.9998,4.5500,0.9778,45.16,45.13,837,8.37,9.3,0.86
00:29:20,4.6500,2.0001,4.5758,0.9834,45.42,45.39,836,8.36,9.3,0.86
00:29:30,4.6500,2.0005,4.6016,0.9889,45.67,45.64,837,8.37,9.3,0.86
00:29:40,4.6500,2.0009,4.6275,0.9945,45.93,45.90,837,8.37,9.3,0.86
00:29:50,4.6510,1.9999,4.6533,1.0000,46.19,46.15,837,8.37,9.3,0.86
00:30:00,4.6520,2.0000,4.6792,1.0056,46.44,46.41,839,8.39,9.3,0.86
00:30:10,4.6520,1.9992,4.7050,1.0112,46.70,46.67,838,8.38,9.3,0.86
00:30:20,4.6510,1.9996,4.7308,1.0167,46.96,46.92,837,8.37,9.3,0.86
00:30:30,4.6510,1.9998,4.7567,1.0223,47.21,47.18,840,8.4,9.3,0.86
00:30:40,4.6510,2.0004,4.7825,1.0278,47.47,47.44,837,8.37,9.3,0.86
00:30:50,4.6510,1.9996,4.8084,1.0334,47.73,47.69,837,8.37,9.3,0.86
00:31:00,4.6510,1.9994,4.8342,1.0389,47.98,47.95,836,8.36,9.3,0.86
00:31:10,4.6510,1.9989,4.8600,1.0445,48.24,48.21,840,8.4,9.3,0.86
00:31:20,4.6510,2.0003,4.8859,1.0500,48.49,48.46,835,8.35,9.3,0.86
00:31:30,4.6510,1.9998,4.9117,1.0556,48.75,48.72,834,8.34,9.3,0.86
00:31:40,4.6500,1.9999,4.9375,1.0612,49.01,48.97,837,8.37,9.3,0.86
00:31:50,4.6500,2.0000,4.9634,1.0667,49.26,49.23,835,8.35,9.3,0.86
00:32:00,4.6500,2.0000,4.9892,1.0723,49.52,49.49,836,8.36,9.3,0.86
00:32:10,4.6500,1.9999,5.0150,1.0778,49.78,49.74,836,8.36,9.3,0.86
00:32:20,4.6500,1.9997,5.0408,1.0834,50.03,50.00,839,8.39,9.3,0.86
00:32:30,4.6500,1.9997,5.0667,1.0889,50.29,50.26,840,8.4,9.3,0.86
00:32:40,4.6500,2.0000,5.0925,1.0945,50.55,50.51,840,8.4,9.3,0.86
00:32:50,4.6500,1.9998,5.1183,1.1000,50.80,50.77,841,8.41,9.3,0.86
00:33:00,4.6500,1.9997,5.1442,1.1056,51.06,51.03,842,8.42,9.3,0.86
00:33:10,4.6490,2.0003,5.1700,1.1111,51.32,51.28,842,8.42,9.3,0.86
00:33:20,4.6500,1.9996,5.1958,1.1167,51.57,51.54,839,8.39,9.3,0.86
00:33:30,4.6500,1.9999,5.2217,1.1223,51.83,51.80,838,8.38,9.3,0.86
00:33:40,4.6500,1.9999,5.2475,1.1278,52.08,52.05,837,8.37,9.3,0.86
00:33:50,4.6500,1.9999,5.2733,1.1334,52.34,52.31,836,8.36,9.3,0.86
00:34:00,4.6490,2.0005,5.2992,1.1389,52.60,52.56,836,8.36,9.3,0.86
00:34:10,4.6490,2.0004,5.3250,1.1445,52.85,52.82,832,8.32,9.3,0.87
00:34:20,4.6490,2.0001,5.3508,1.1500,53.11,53.08,833,8.33,9.3,0.87
00:34:30,4.6490,2.0008,5.3767,1.1556,53.37,53.33,838,8.38,9.3,0.86
00:34:40,4.6490,1.9998,5.4025,1.1612,53.62,53.59,838,8.38,9.3,0.86
00:34:50,4.6500,2.0006,5.4283,1.1667,53.88,53.85,841,8.41,9.3,0.86
00:35:00,4.6500,2.0020,5.4542,1.1723,54.14,54.10,838,8.38,9.31,0.86
00:35:10,4.6500,1.9999,5.4800,1.1778,54.39,54.36,838,8.38,9.3,0.86
00:35:20,4.6500,2.0012,5.5059,1.1834,54.65,54.62,834,8.34,9.31,0.87
00:35:30,4.6490,2.0008,5.5317,1.1889,54.91,54.87,830,8.3,9.3,0.87
00:35:40,4.6490,2.0013,5.5576,1.1945,55.16,55.13,836,8.36,9.3,0.86
00:35:50,4.6490,2.0005,5.5834,1.2001,55.42,55.39,837,8.37,9.3,0.86
00:36:00,4.6480,2.0000,5.6092,1.2056,55.67,55.64,837,8.37,9.3,0.86
00:36:10,4.6480,2.0000,5.6350,1.2112,55.93,55.90,838,8.38,9.3,0.86
00:36:20,4.6470,2.0005,5.6609,1.2167,56.19,56.15,839,8.39,9.3,0.86
00:36:30,4.6470,1.9990,5.6867,1.2223,56.44,56.41,839,8.39,9.29,0.86
00:36:40,4.6470,2.0004,5.7125,1.2278,56.70,56.67,837,8.37,9.3,0.86
00:36:50,4.6480,1.9991,5.7383,1.2334,56.96,56.92,840,8.4,9.29,0.86
00:37:00,4.6480,2.0008,5.7641,1.2389,57.21,57.18,836,8.36,9.3,0.86
00:37:10,4.6470,1.9999,5.7899,1.2445,57.47,57.44,836,8.36,9.29,0.86
00:37:20,4.6470,2.0002,5.8158,1.2501,57.72,57.69,834,8.34,9.29,0.86
00:37:30,4.6470,1.9999,5.8416,1.2556,57.98,57.95,834,8.34,9.29,0.86
00:37:40,4.6470,2.0000,5.8674,1.2612,58.24,58.21,839,8.39,9.29,0.86
00:37:50,4.6480,1.9993,5.8932,1.2667,58.49,58.46,840,8.4,9.29,0.86
00:38:00,4.6490,2.0008,5.9190,1.2723,58.75,58.72,845,8.45,9.3,0.85
00:38:10,4.6490,2.0001,5.9449,1.2778,59.01,58.98,840,8.4,9.3,0.86
00:38:20,4.6500,2.0000,5.9707,1.2834,59.26,59.23,841,8.41,9.3,0.86
00:38:30,4.6500,2.0007,5.9965,1.2889,59.52,59.49,843,8.43,9.3,0.86
00:38:40,4.6500,1.9996,6.0224,1.2945,59.78,59.74,842,8.42,9.3,0.86
00:38:50,4.6500,1.9991,6.0482,1.3001,60.03,60.00,842,8.42,9.3,0.86
00:39:00,4.6500,1.9999,6.0740,1.3056,60.29,60.26,843,8.43,9.3,0.86
00:39:10,4.6500,1.9999,6.0999,1.3112,60.54,60.51,843,8.43,9.3,0.86
00:39:20,4.6490,2.0003,6.1257,1.3167,60.80,60.77,845,8.45,9.3,0.85
00:39:30,4.6490,2.0001,6.1515,1.3223,61.06,61.03,844,8.44,9.3,0.85
00:39:40,4.6490,2.0002,6.1773,1.3278,61.31,61.28,842,8.42,9.3,0.86
00:39:50,4.6490,2.0001,6.2032,1.3334,61.57,61.54,838,8.38,9.3,0.86
00:40:00,4.6480,2.0005,6.2290,1.3389,61.83,61.80,844,8.44,9.3,0.85
00:40:10,4.6470,2.0003,6.2548,1.3445,62.08,62.05,839,8.39,9.3,0.86
00:40:20,4.6460,2.0005,6.2806,1.3501,62.34,62.31,839,8.39,9.29,0.86
00:40:30,4.6460,2.0002,6.3065,1.3556,62.60,62.57,842,8.42,9.29,0.86
00:40:40,4.6460,1.9999,6.3323,1.3612,62.85,62.82,843,8.43,9.29,0.85
00:40:50,4.6460,2.0002,6.3581,1.3667,63.11,63.08,840,8.4,9.29,0.86
00:41:00,4.6450,2.0001,6.3839,1.3723,63.36,63.33,839,8.39,9.29,0.86
00:41:10,4.6450,1.9998,6.4097,1.3778,63.62,63.59,838,8.38,9.29,0.86
00:41:20,4.6450,1.9999,6.4355,1.3834,63.88,63.85,839,8.39,9.29,0.86
00:41:30,4.6450,1.9996,6.4613,1.3890,64.13,64.10,839,8.39,9.29,0.86
00:41:40,4.6450,1.9998,6.4871,1.3945,64.39,64.36,838,8.38,9.29,0.86
00:41:50,4.6450,1.9997,6.5129,1.4001,64.64,64.62,844,8.44,9.29,0.85
00:42:00,4.6460,2.0004,6.5387,1.4056,64.90,64.87,838,8.38,9.29,0.86
00:42:10,4.6470,1.9998,6.5645,1.4112,65.16,65.13,844,8.44,9.29,0.85
00:42:20,4.6470,1.9999,6.5903,1.4167,65.41,65.39,845,8.45,9.29,0.85
00:42:30,4.6470,1.9998,6.6162,1.4223,65.67,65.64,843,8.43,9.29,0.85
00:42:40,4.6470,1.9999,6.6420,1.4278,65.93,65.90,846,8.46,9.29,0.85
00:42:50,4.6470,1.9998,6.6678,1.4334,66.18,66.15,844,8.44,9.29,0.85
00:43:00,4.6470,1.9998,6.6936,1.4389,66.44,66.41,843,8.43,9.29,0.85
00:43:10,4.6480,1.9996,6.7194,1.4445,66.69,66.67,843,8.43,9.29,0.85
00:43:20,4.6480,2.0005,6.7452,1.4501,66.95,66.92,839,8.39,9.3,0.86
00:43:30,4.6490,2.0001,6.7711,1.4556,67.21,67.18,841,8.41,9.3,0.86
00:43:40,4.6490,2.0010,6.7969,1.4612,67.46,67.44,845,8.45,9.3,0.85
00:43:50,4.6490,2.0005,6.8228,1.4667,67.72,67.69,844,8.44,9.3,0.85
00:44:00,4.6490,2.0000,6.8486,1.4723,67.98,67.95,847,8.47,9.3,0.85
00:44:10,4.6490,1.9998,6.8744,1.4778,68.23,68.21,843,8.43,9.3,0.86
00:44:20,4.6490,2.0003,6.9002,1.4834,68.49,68.46,839,8.39,9.3,0.86
00:44:30,4.6490,1.9989,6.9261,1.4889,68.75,68.72,840,8.4,9.29,0.86
00:44:40,4.6490,2.0000,6.9519,1.4945,69.00,68.98,842,8.42,9.3,0.86
00:44:50,4.6490,1.9997,6.9777,1.5001,69.26,69.23,842,8.42,9.3,0.86
00:45:00,4.6490,1.9995,7.0035,1.5056,69.51,69.49,837,8.37,9.3,0.86
00:45:10,4.6480,1.9998,7.0293,1.5112,69.77,69.74,842,8.42,9.3,0.86
00:45:20,4.6490,2.0000,7.0552,1.5167,70.03,70.00,841,8.41,9.3,0.86
00:45:30,4.6480,2.0002,7.0810,1.5223,70.28,70.26,835,8.35,9.3,0.86
00:45:40,4.6490,1.9999,7.1068,1.5278,70.54,70.51,840,8.4,9.3,0.86
00:45:50,4.6490,2.0003,7.1327,1.5334,70.80,70.77,837,8.37,9.3,0.86
00:46:00,4.6490,2.0000,7.1585,1.5389,71.05,71.03,833,8.33,9.3,0.87
00:46:10,4.6490,2.0001,7.1843,1.5445,71.31,71.28,836,8.36,9.3,0.86
00:46:20,4.6490,2.0003,7.2101,1.5501,71.56,71.54,838,8.38,9.3,0.86
00:46:30,4.6490,2.0001,7.2360,1.5556,71.82,71.80,838,8.38,9.3,0.86
00:46:40,4.6490,2.0005,7.2618,1.5612,72.08,72.05,831,8.31,9.3,0.87
00:46:50,4.6490,2.0003,7.2876,1.5667,72.33,72.31,836,8.36,9.3,0.86
00:47:00,4.6480,2.0004,7.3135,1.5723,72.59,72.56,835,8.35,9.3,0.86
00:47:10,4.6480,2.0001,7.3393,1.5778,72.85,72.82,828,8.28,9.3,0.87
00:47:20,4.6470,1.9991,7.3651,1.5834,73.10,73.08,828,8.28,9.29,0.87
00:47:30,4.6470,2.0002,7.3909,1.5890,73.36,73.33,834,8.34,9.29,0.86
00:47:40,4.6480,2.0003,7.4167,1.5945,73.62,73.59,836,8.36,9.3,0.86
00:47:50,4.6480,2.0004,7.4426,1.6001,73.87,73.85,836,8.36,9.3,0.86
00:48:00,4.6480,2.0005,7.4684,1.6056,74.13,74.10,838,8.38,9.3,0.86
00:48:10,4.6490,2.0000,7.4942,1.6112,74.38,74.36,838,8.38,9.3,0.86
00:48:20,4.6490,2.0000,7.5201,1.6167,74.64,74.62,840,8.4,9.3,0.86
00:48:30,4.6490,1.9998,7.5459,1.6223,74.90,74.87,838,8.38,9.3,0.86
00:48:40,4.6480,1.9999,7.5717,1.6278,75.15,75.13,839,8.39,9.3,0.86
00:48:50,4.6480,1.9998,7.5975,1.6334,75.41,75.39,839,8.39,9.3,0.86
00:49:00,4.6490,1.9996,7.6233,1.6390,75.67,75.64,836,8.36,9.3,0.86
00:49:10,4.6480,2.0001,7.6492,1.6445,75.92,75.90,838,8.38,9.3,0.86
00:49:20,4.6470,1.9997,7.6750,1.6501,76.18,76.15,839,8.39,9.29,0.86
00:49:30,4.6470,1.9997,7.7008,1.6556,76.43,76.41,837,8.37,9.29,0.86
00:49:40,4.6470,1.9998,7.7266,1.6612,76.69,76.67,840,8.4,9.29,0.86
00:49:50,4.6480,1.9999,7.7524,1.6667,76.95,76.92,839,8.39,9.3,0.86
00:50:00,4.6470,1.9995,7.7782,1.6723,77.20,77.18,839,8.39,9.29,0.86
00:50:10,4.6470,2.0002,7.8041,1.6778,77.46,77.44,839,8.39,9.29,0.86
00:50:20,4.6470,2.0004,7.8299,1.6834,77.72,77.69,835,8.35,9.3,0.86
00:50:30,4.6460,2.0003,7.8557,1.6890,77.97,77.95,839,8.39,9.29,0.86
00:50:40,4.6460,2.0006,7.8815,1.6945,78.23,78.21,835,8.35,9.29,0.86
00:50:50,4.6460,2.0004,7.9073,1.7001,78.48,78.46,838,8.38,9.29,0.86
00:51:00,4.6460,2.0000,7.9331,1.7056,78.74,78.72,837,8.37,9.29,0.86
00:51:10,4.6460,2.0002,7.9590,1.7112,79.00,78.97,839,8.39,9.29,0.86
00:51:20,4.6450,2.0000,7.9848,1.7167,79.25,79.23,839,8.39,9.29,0.86
00:51:30,4.6450,2.0002,8.0106,1.7223,79.51,79.49,837,8.37,9.29,0.86
00:51:40,4.6440,2.0005,8.0364,1.7278,79.77,79.74,835,8.35,9.29,0.86
00:51:50,4.6440,1.9997,8.0622,1.7334,80.02,80.00,832,8.32,9.29,0.87
00:52:00,4.6440,2.0004,8.0880,1.7390,80.28,80.26,835,8.35,9.29,0.86
00:52:10,4.6440,2.0000,8.1138,1.7445,80.53,80.51,838,8.38,9.29,0.86
00:52:20,4.6440,2.0000,8.1396,1.7501,80.79,80.77,837,8.37,9.29,0.86
00:52:30,4.6440,2.0003,8.1654,1.7556,81.05,81.03,833,8.33,9.29,0.86
00:52:40,4.6440,1.9999,8.1912,1.7612,81.30,81.28,836,8.36,9.29,0.86
00:52:50,4.6440,1.9999,8.2170,1.7667,81.56,81.54,838,8.38,9.29,0.86
00:53:00,4.6440,2.0003,8.2428,1.7723,81.81,81.80,836,8.36,9.29,0.86
00:53:10,4.6450,2.0001,8.2686,1.7778,82.07,82.05,837,8.37,9.29,0.86
00:53:20,4.6450,2.0001,8.2944,1.7834,82.33,82.31,839,8.39,9.29,0.86
00:53:30,4.6460,2.0004,8.3202,1.7890,82.58,82.56,837,8.37,9.29,0.86
00:53:40,4.6460,2.0001,8.3460,1.7945,82.84,82.82,837,8.37,9.29,0.86
00:53:50,4.6460,2.0000,8.3718,1.8001,83.10,83.08,835,8.35,9.29,0.86
00:54:00,4.6460,2.0003,8.3976,1.8056,83.35,83.33,837,8.37,9.29,0.86
00:54:10,4.6460,1.9999,8.4235,1.8112,83.61,83.59,836,8.36,9.29,0.86
00:54:20,4.6450,2.0001,8.4493,1.8167,83.86,83.85,838,8.38,9.29,0.86
00:54:30,4.6450,1.9998,8.4751,1.8223,84.12,84.10,838,8.38,9.29,0.86
00:54:40,4.6450,1.9997,8.5009,1.8278,84.38,84.36,835,8.35,9.29,0.86
00:54:50,4.6440,1.9999,8.5267,1.8334,84.63,84.62,833,8.33,9.29,0.86
00:55:00,4.6440,1.9997,8.5525,1.8390,84.89,84.87,836,8.36,9.29,0.86
00:55:10,4.6440,2.0000,8.5783,1.8445,85.14,85.13,832,8.32,9.29,0.87
00:55:20,4.6430,2.0000,8.6041,1.8501,85.40,85.39,834,8.34,9.29,0.86
00:55:30,4.6430,1.9998,8.6298,1.8556,85.66,85.64,836,8.36,9.29,0.86
00:55:40,4.6430,1.9999,8.6556,1.8612,85.91,85.90,836,8.36,9.29,0.86
00:55:50,4.6430,1.9998,8.6814,1.8667,86.17,86.15,839,8.39,9.29,0.86
00:56:00,4.6440,2.0000,8.7072,1.8723,86.42,86.41,837,8.37,9.29,0.86
00:56:10,4.6440,1.9999,8.7330,1.8778,86.68,86.67,839,8.39,9.29,0.86
00:56:20,4.6440,2.0000,8.7588,1.8834,86.94,86.92,836,8.36,9.29,0.86
00:56:30,4.6440,2.0000,8.7846,1.8890,87.19,87.18,838,8.38,9.29,0.86
00:56:40,4.6450,1.9998,8.8104,1.8945,87.45,87.44,840,8.4,9.29,0.86
00:56:50,4.6450,2.0000,8.8362,1.9001,87.70,87.69,838,8.38,9.29,0.86
00:57:00,4.6450,1.9995,8.8620,1.9056,87.96,87.95,834,8.34,9.29,0.86
00:57:10,4.6440,1.9997,8.8878,1.9112,88.22,88.21,837,8.37,9.29,0.86
00:57:20,4.6440,2.0000,8.9136,1.9167,88.47,88.46,835,8.35,9.29,0.86
00:57:30,4.6440,2.0005,8.9394,1.9223,88.73,88.72,834,8.34,9.29,0.86
00:57:40,4.6440,2.0000,8.9652,1.9278,88.99,88.97,832,8.32,9.29,0.87
00:57:50,4.6440,1.9999,8.9910,1.9334,89.24,89.23,834,8.34,9.29,0.86
00:58:00,4.6440,1.9999,9.0168,1.9390,89.50,89.49,836,8.36,9.29,0.86
00:58:10,4.6440,2.0000,9.0426,1.9445,89.75,89.74,835,8.35,9.29,0.86
00:58:20,4.6440,1.9997,9.0684,1.9501,90.01,90.00,835,8.35,9.29,0.86
00:58:30,4.6450,2.0001,9.0942,1.9556,90.27,90.26,839,8.39,9.29,0.86
00:58:40,4.6450,1.9995,9.1200,1.9612,90.52,90.51,836,8.36,9.29,0.86
00:58:50,4.6450,2.0001,9.1458,1.9667,90.78,90.77,841,8.41,9.29,0.86
00:59:00,4.6460,2.0000,9.1717,1.9723,91.03,91.03,834,8.34,9.29,0.86
00:59:10,4.6450,1.9999,9.1975,1.9778,91.29,91.28,833,8.33,9.29,0.86
00:59:20,4.6450,2.0000,9.2233,1.9834,91.55,91.54,835,8.35,9.29,0.86
00:59:30,4.6450,2.0002,9.2491,1.9890,91.80,91.80,828,8.28,9.29,0.87
00:59:40,4.6450,1.9998,9.2749,1.9945,92.06,92.05,834,8.34,9.29,0.86
00:59:50,4.6450,2.0000,9.3007,2.0001,92.31,92.31,838,8.38,9.29,0.86
01:00:00,4.6450,2.0004,9.3265,2.0056,92.57,92.56,835,8.35,9.29,0.86
01:00:10,4.6450,1.9998,9.3523,2.0112,92.83,92.82,839,8.39,9.29,0.86
01:00:20,4.6450,1.9999,9.3781,2.0167,93.08,93.08,840,8.4,9.29,0.86
01:00:30,4.6450,2.0003,9.4039,2.0223,93.34,93.33,838,8.38,9.29,0.86
01:00:40,4.6450,1.9999,9.4297,2.0278,93.60,93.59,837,8.37,9.29,0.86
01:00:50,4.6450,1.9998,9.4555,2.0334,93.85,93.85,839,8.39,9.29,0.86
01:01:00,4.6450,1.9999,9.4813,2.0390,94.11,94.10,840,8.4,9.29,0.86
01:01:10,4.6450,1.9996,9.5071,2.0445,94.36,94.36,839,8.39,9.29,0.86
01:01:20,4.6460,1.9995,9.5329,2.0501,94.62,94.62,835,8.35,9.29,0.86
01:01:30,4.6460,2.0001,9.5587,2.0556,94.88,94.87,839,8.39,9.29,0.86
01:01:40,4.6460,2.0000,9.5846,2.0612,95.13,95.13,840,8.4,9.29,0.86
01:01:50,4.6460,2.0003,9.6104,2.0667,95.39,95.38,837,8.37,9.29,0.86
01:02:00,4.6460,1.9999,9.6362,2.0723,95.64,95.64,837,8.37,9.29,0.86
01:02:10,4.6460,1.9998,9.6620,2.0778,95.90,95.90,837,8.37,9.29,0.86
01:02:20,4.6460,2.0000,9.6878,2.0834,96.16,96.15,838,8.38,9.29,0.86
01:02:30,4.6460,1.9999,9.7136,2.0889,96.41,96.41,836,8.36,9.29,0.86
01:02:40,4.6460,1.9998,9.7394,2.0945,96.67,96.67,836,8.36,9.29,0.86
01:02:50,4.6460,2.0007,9.7652,2.1001,96.93,96.92,840,8.4,9.3,0.86
01:03:00,4.6460,1.9998,9.7910,2.1056,97.18,97.18,844,8.44,9.29,0.85
01:03:10,4.6460,2.0000,9.8169,2.1112,97.44,97.44,840,8.4,9.29,0.86
01:03:20,4.6460,2.0001,9.8427,2.1167,97.69,97.69,838,8.38,9.29,0.86
01:03:30,4.6460,2.0001,9.8685,2.1223,97.95,97.95,840,8.4,9.29,0.86
01:03:40,4.6460,1.9998,9.8943,2.1278,98.21,98.20,839,8.39,9.29,0.86
01:03:50,4.6460,2.0001,9.9201,2.1334,98.46,98.46,833,8.33,9.29,0.86
01:04:00,4.6450,2.0004,9.9459,2.1390,98.72,98.72,838,8.38,9.29,0.86
01:04:10,4.6450,2.0004,9.9717,2.1445,98.98,98.97,838,8.38,9.29,0.86
01:04:20,4.6450,2.0002,9.9975,2.1501,99.23,99.23,839,8.39,9.29,0.86
01:04:30,4.6450,2.0012,10.0234,2.1556,99.49,99.49,838,8.38,9.3,0.86
01:04:40,4.6460,1.9992,10.0492,2.1612,99.74,99.74,840,8.4,9.29,0.86
01:04:50,4.6460,2.0000,10.0750,2.1667,100.00,100.00,842,8.42,9.29,0.86
01:05:00,4.6290,1.9996,10.1007,2.1723,100.26,100.26,847,8.47,9.26,0.85