File: output/1/xdragon-a.csv
Time,Voltage(V),Current(A),Energy(Wh),Capacity(Ah),Energy Proportion(%),Capacity Proportion(%),Irradiance(W/m2),Irradiance/100,Power(W),Efficiency(%),Power Score,Sun Score,Efficiency Score
00:00:00,3.7820,1.8794,0.0197,0.0052,0.37,0.32,882,8.82,7.11,0.75,88.2,67.7,20.5
00:00:20,3.6760,1.8120,0.0582,0.0155,1.10,0.96,838,8.38,6.66,0.74,83.8,63.4,20.4
00:00:40,3.7230,1.8602,0.0928,0.0253,1.75,1.57,863,8.63,6.93,0.75,86.3,66.0,20.3
00:01:00,3.7360,1.8700,0.1316,0.0357,2.48,2.22,847,8.47,6.99,0.77,84.7,66.6,18.1
00:01:20,3.1520,1.6558,0.1638,0.0453,3.08,2.81,562,5.62,5.22,0.87,56.2,49.7,6.5
00:01:40,2.8960,1.3201,0.1868,0.0532,3.51,3.30,267,2.67,3.82,1.34,26.7,36.4,-9.7
00:02:00,2.9580,1.5467,0.2021,0.0585,3.80,3.63,806,8.06,4.58,0.53,80.6,43.6,37.0
00:02:20,3.0950,1.5907,0.2332,0.0679,4.38,4.21,595,5.95,4.92,0.77,59.5,46.9,12.6
00:02:40,2.9010,1.3053,0.2445,0.0716,4.60,4.44,321,3.21,3.79,1.1,32.1,36.1,-4.0
00:03:00,3.7550,1.8798,0.2694,0.0786,5.07,4.87,867,8.67,7.06,0.76,86.7,67.2,19.5
00:03:20,2.9490,1.4364,0.3009,0.0878,5.66,5.45,785,7.85,4.24,0.5,78.5,40.4,38.1
00:03:40,3.6390,1.8228,0.3364,0.0977,6.33,6.06,833,8.33,6.63,0.74,83.3,63.1,20.2
00:04:00,3.6090,1.8071,0.3728,0.1078,7.01,6.68,832,8.32,6.52,0.73,83.2,62.1,21.1
00:04:20,3.6020,1.8049,0.4089,0.1178,7.69,7.31,828,8.28,6.5,0.73,82.8,61.9,20.9
00:04:40,3.5990,1.8038,0.4450,0.1278,8.37,7.93,830,8.3,6.49,0.73,83.0,61.8,21.2
00:05:00,3.6010,1.8042,0.4810,0.1378,9.05,8.55,829,8.29,6.5,0.73,82.9,61.9,21.0
00:05:20,3.6010,1.8028,0.5170,0.1478,9.72,9.17,832,8.32,6.49,0.73,83.2,61.8,21.4
00:05:40,3.6160,1.8110,0.5534,0.1579,10.41,9.79,834,8.34,6.55,0.73,83.4,62.4,21.0
00:06:00,3.6100,1.8108,0.5897,0.1680,11.09,10.42,831,8.31,6.54,0.74,83.1,62.3,20.8
00:06:20,3.6130,1.8096,0.6260,0.1780,11.77,11.04,837,8.37,6.54,0.73,83.7,62.3,21.4
00:06:40,3.6210,1.8160,0.6625,0.1881,12.46,11.67,836,8.36,6.58,0.74,83.6,62.7,20.9
00:07:00,3.6220,1.8170,0.6991,0.1982,13.15,12.29,837,8.37,6.58,0.73,83.7,62.7,21.0
00:07:20,3.6160,1.8143,0.7356,0.2083,13.83,12.92,840,8.4,6.56,0.73,84.0,62.5,21.5
00:07:40,3.6260,1.8167,0.7721,0.2184,14.52,13.54,839,8.39,6.59,0.73,83.9,62.8,21.1
00:08:00,3.6310,1.8217,0.8088,0.2285,15.21,14.17,844,8.44,6.61,0.73,84.4,63.0,21.4
00:08:20,3.6530,1.8313,0.8459,0.2386,15.91,14.80,853,8.53,6.69,0.73,85.3,63.7,21.6
00:08:40,3.7060,1.8599,0.8834,0.2489,16.61,15.44,644,6.44,6.89,1.0,64.4,65.6,-1.2
00:09:00,5.3160,0.0092,0.8948,0.2527,16.83,15.67,867,8.67,0.05,0.01,86.7,0.5,86.2
00:09:20,3.7170,1.8628,0.9331,0.2630,17.55,16.32,871,8.71,6.92,0.74,87.1,65.9,21.2
00:09:40,3.6610,1.8396,0.9711,0.2733,18.26,16.95,844,8.44,6.73,0.75,84.4,64.1,20.3
00:10:00,2.9380,1.3907,0.9984,0.2819,18.78,17.49,602,6.02,4.09,0.63,60.2,39.0,21.2
00:10:20,3.7800,1.8940,1.0295,0.2911,19.36,18.05,896,8.96,7.16,0.75,89.6,68.2,21.4
00:10:40,2.9690,1.4480,1.0614,0.3004,19.96,18.63,575,5.75,4.3,0.7,57.5,41.0,16.5
00:11:00,2.9720,1.5346,1.0844,0.3082,20.39,19.12,759,7.59,4.56,0.56,75.9,43.4,32.5
00:11:20,2.8680,1.2702,1.1110,0.3165,20.89,19.63,613,6.13,3.64,0.55,61.3,34.7,26.6
00:11:40,3.5190,1.7624,1.1389,0.3251,21.42,20.17,840,8.4,6.2,0.69,84.0,59.0,25.0
00:12:00,3.5550,1.7781,1.1752,0.3351,22.10,20.79,702,7.02,6.32,0.84,70.2,60.2,10.0
00:12:20,2.5150,0.3165,1.1894,0.3401,22.37,21.10,183.0,1.83,0.8,0.41,18.3,7.6,10.7
00:12:40,2.3980,0.2895,1.1933,0.3418,22.44,21.20,188.5,1.885,0.69,0.34,18.9,6.6,12.3
00:13:00,2.3760,0.2885,1.1971,0.3434,22.51,21.30,191.0,1.91,0.69,0.34,19.1,6.6,12.5
00:13:20,2.3530,0.2784,1.2008,0.3449,22.58,21.39,185.0,1.85,0.66,0.33,18.5,6.3,12.2
00:13:40,2.3450,0.2727,1.2044,0.3464,22.65,21.49,190.5,1.905,0.64,0.31,19.1,6.1,13.0
00:14:00,2.3420,0.2704,1.2079,0.3480,22.72,21.58,193.0,1.93,0.63,0.31,19.3,6.0,13.3
00:14:20,2.3470,0.2782,1.2116,0.3495,22.79,21.68,194.5,1.945,0.65,0.31,19.5,6.2,13.3
00:14:40,2.3490,0.2772,1.2152,0.3511,22.85,21.78,191.5,1.915,0.65,0.32,19.2,6.2,13.0
00:15:00,2.3500,0.2756,1.2188,0.3526,22.92,21.87,190.5,1.905,0.65,0.32,19.1,6.2,12.9
00:15:20,2.3510,0.2722,1.2224,0.3541,22.99,21.96,188.0,1.88,0.64,0.32,18.8,6.1,12.7
00:15:40,2.3500,0.2697,1.2259,0.3556,23.05,22.06,184.5,1.845,0.63,0.32,18.5,6.0,12.5
00:16:00,2.3500,0.2706,1.2294,0.3571,23.12,22.15,182.5,1.825,0.64,0.33,18.3,6.1,12.2
00:16:20,2.3490,0.2710,1.2329,0.3586,23.19,22.24,182.5,1.825,0.64,0.33,18.3,6.1,12.2
00:16:40,2.3520,0.2687,1.2364,0.3601,23.25,22.34,183.5,1.835,0.63,0.32,18.4,6.0,12.4
00:17:00,2.3530,0.2680,1.2399,0.3616,23.32,22.43,185.0,1.85,0.63,0.32,18.5,6.0,12.5
00:17:20,2.3550,0.2701,1.2435,0.3631,23.38,22.52,186.5,1.865,0.64,0.32,18.7,6.1,12.6
00:17:40,2.3550,0.2696,1.2470,0.3646,23.45,22.61,181.0,1.81,0.63,0.33,18.1,6.0,12.1
00:18:00,2.3530,0.2591,1.2504,0.3660,23.52,22.70,172.7,1.727,0.61,0.33,17.3,5.8,11.5
00:18:20,2.3560,0.2501,1.2538,0.3675,23.58,22.79,169.2,1.692,0.59,0.33,16.9,5.6,11.3
00:18:40,2.3530,0.2602,1.2572,0.3689,23.64,22.88,164.8,1.648,0.61,0.35,16.5,5.8,10.7
00:19:00,2.3530,0.2516,1.2604,0.3703,23.70,22.97,169.2,1.692,0.59,0.33,16.9,5.6,11.3
00:19:20,2.3570,0.2527,1.2637,0.3717,23.77,23.05,174.4,1.744,0.6,0.32,17.4,5.7,11.7
00:19:40,2.3860,0.3221,1.2676,0.3733,23.84,23.15,713,7.13,0.77,0.1,71.3,7.3,64.0
00:20:00,2.3770,0.2751,1.2816,0.3782,24.10,23.46,181.5,1.815,0.65,0.33,18.2,6.2,12.0
00:20:20,2.3670,0.2638,1.2850,0.3796,24.17,23.55,189.0,1.89,0.62,0.31,18.9,5.9,13.0
00:20:40,2.4210,0.3810,1.2894,0.3814,24.25,23.66,216,2.16,0.92,0.4,21.6,8.8,12.8
00:21:00,2.3930,0.3198,1.2935,0.3832,24.33,23.77,308,3.08,0.77,0.23,30.8,7.3,23.5
00:21:20,2.4200,0.3852,1.2984,0.3852,24.42,23.89,663,6.63,0.93,0.13,66.3,8.9,57.4
00:21:40,3.0670,0.4682,1.3158,0.3909,24.75,24.25,827,8.27,1.44,0.16,82.7,13.7,69.0
00:22:00,2.4070,0.3224,1.3371,0.3970,25.14,24.62,214,2.14,0.78,0.34,21.4,7.4,14.0
00:22:20,2.3770,0.2914,1.3410,0.3986,25.22,24.72,208,2.08,0.69,0.31,20.8,6.6,14.2
00:22:40,2.3710,0.2855,1.3448,0.4002,25.29,24.82,211,2.11,0.68,0.3,21.1,6.5,14.6
00:23:00,2.3770,0.2990,1.3487,0.4018,25.36,24.92,228,2.28,0.71,0.29,22.8,6.8,16.0
00:23:20,2.4450,0.4651,1.3539,0.4040,25.46,25.06,477,4.77,1.14,0.22,47.7,10.9,36.8
00:23:40,3.4930,1.7361,1.3786,0.4116,25.93,25.53,254,2.54,6.06,2.23,25.4,57.7,-32.3
00:24:00,2.3930,0.3117,1.3829,0.4134,26.01,25.64,227,2.27,0.75,0.31,22.7,7.1,15.6
00:24:20,2.2440,0.7771,1.3898,0.4164,26.14,25.83,234,2.34,1.74,0.69,23.4,16.6,6.8
00:24:40,2.6270,0.3603,1.3954,0.4185,26.24,25.96,240,2.4,0.95,0.37,24.0,9.0,15.0
00:25:00,2.5770,0.4087,1.4009,0.4206,26.35,26.09,253,2.53,1.05,0.39,25.3,10.0,15.3
00:25:20,2.5170,0.4254,1.4064,0.4228,26.45,26.23,912,9.12,1.07,0.11,91.2,10.2,81.0
00:25:40,5.3180,0.0091,1.4280,0.4283,26.86,26.57,645,6.45,0.05,0.01,64.5,0.5,64.0
00:26:00,2.9700,1.5487,1.4523,0.4365,27.31,27.08,884,8.84,4.6,0.49,88.4,43.8,44.6
00:26:20,3.7400,1.8778,1.4915,0.4470,28.05,27.73,885,8.85,7.02,0.74,88.5,66.9,21.6
00:26:40,3.7370,1.8737,1.5305,0.4574,28.78,28.37,882,8.82,7.0,0.74,88.2,66.7,21.5
00:27:00,3.7490,1.8782,1.5694,0.4678,29.51,29.02,886,8.86,7.04,0.74,88.6,67.0,21.6
00:27:20,3.7880,1.8997,1.6091,0.4783,30.26,29.67,903,9.03,7.2,0.75,90.3,68.6,21.7
00:27:40,2.3740,0.3188,1.6267,0.4839,30.59,30.02,260,2.6,0.76,0.27,26.0,7.2,18.8
00:28:00,5.0220,0.6145,1.6377,0.4866,30.80,30.18,874,8.74,3.09,0.33,87.4,29.4,58.0
00:28:20,5.3180,0.0092,1.6488,0.4904,31.01,30.42,312,3.12,0.05,0.01,31.2,0.5,30.7
00:28:40,2.9250,1.4865,1.6672,0.4964,31.35,30.79,820,8.2,4.35,0.5,82.0,41.4,40.6
00:29:00,3.6500,1.8336,1.7060,0.5068,32.08,31.43,832,8.32,6.69,0.75,83.2,63.7,19.5
00:29:20,2.8380,1.1278,1.7301,0.5145,32.54,31.92,885,8.85,3.2,0.34,88.5,30.5,58.0
00:29:40,3.7490,1.8801,1.7696,0.5250,33.28,32.57,888,8.88,7.05,0.74,88.8,67.1,21.7
00:30:00,3.7750,1.8920,1.8092,0.5355,34.02,33.22,895,8.95,7.14,0.75,89.5,68.0,21.5
00:30:20,3.8050,1.9077,1.8494,0.5461,34.78,33.87,894,8.94,7.26,0.76,89.4,69.1,20.3
00:30:40,3.2570,1.6806,1.8847,0.5561,35.44,34.49,577,5.77,5.47,0.89,57.7,52.1,5.6
00:31:00,2.3540,0.3026,1.8891,0.5579,35.53,34.61,222,2.22,0.71,0.3,22.2,6.8,15.4
00:31:20,2.3450,0.2932,1.8930,0.5596,35.60,34.71,216,2.16,0.69,0.3,21.6,6.6,15.0
00:31:40,2.3450,0.2937,1.8968,0.5612,35.67,34.81,220,2.2,0.69,0.29,22.0,6.6,15.4
00:32:00,2.3530,0.3076,1.9008,0.5629,35.75,34.91,248,2.48,0.72,0.27,24.8,6.9,17.9
00:32:20,2.3650,0.3260,1.9051,0.5647,35.83,35.03,247,2.47,0.77,0.29,24.7,7.3,17.4
00:32:40,2.3630,0.3219,1.9093,0.5665,35.91,35.14,250,2.5,0.76,0.28,25.0,7.2,17.8
00:33:00,2.3620,0.3175,1.9136,0.5683,35.99,35.25,231,2.31,0.75,0.3,23.1,7.1,16.0
00:33:20,2.3570,0.2970,1.9176,0.5700,36.06,35.36,213,2.13,0.7,0.31,21.3,6.7,14.6
00:33:40,2.3550,0.2900,1.9214,0.5716,36.13,35.46,211,2.11,0.68,0.3,21.1,6.5,14.6
00:34:00,2.3670,0.3031,1.9253,0.5733,36.21,35.56,208,2.08,0.72,0.32,20.8,6.9,13.9
00:34:20,2.3670,0.2853,1.9291,0.5749,36.28,35.66,200,2.0,0.68,0.32,20.0,6.5,13.5
00:34:40,2.3640,0.2753,1.9327,0.5764,36.35,35.75,191.0,1.91,0.65,0.32,19.1,6.2,12.9
00:35:00,2.3610,0.2687,1.9363,0.5779,36.41,35.85,188.5,1.885,0.63,0.31,18.9,6.0,12.9
00:35:20,2.3650,0.2775,1.9399,0.5795,36.48,35.94,477,4.77,0.66,0.13,47.7,6.3,41.4
00:35:40,3.5700,1.7829,1.9681,0.5866,37.01,36.38,323,3.23,6.36,1.84,32.3,60.6,-28.3
00:36:00,2.4020,0.3416,1.9727,0.5885,37.10,36.50,219,2.19,0.82,0.35,21.9,7.8,14.1
00:36:20,2.5530,0.5803,1.9790,0.5910,37.22,36.66,221,2.21,1.48,0.63,22.1,14.1,8.0
00:36:40,2.3570,0.2776,1.9827,0.5926,37.29,36.76,191.0,1.91,0.65,0.32,19.1,6.2,12.9
00:37:00,2.3570,0.2733,1.9863,0.5941,37.35,36.85,191.0,1.91,0.64,0.31,19.1,6.1,13.0
00:37:20,2.3570,0.2704,1.9898,0.5956,37.42,36.94,187.5,1.875,0.64,0.32,18.8,6.1,12.7
00:37:40,2.3600,0.2687,1.9933,0.5971,37.49,37.04,183.0,1.83,0.63,0.32,18.3,6.0,12.3
00:38:00,2.3640,0.2677,1.9968,0.5986,37.55,37.13,178.2,1.782,0.63,0.33,17.8,6.0,11.8
00:38:20,2.3650,0.2596,2.0003,0.6000,37.62,37.22,172.6,1.726,0.61,0.33,17.3,5.8,11.5
00:38:40,2.3680,0.2580,2.0037,0.6014,37.68,37.31,174.1,1.741,0.61,0.33,17.4,5.8,11.6
00:39:00,2.3840,0.2910,2.0073,0.6030,37.75,37.40,711,7.11,0.69,0.09,71.1,6.6,64.5
00:39:20,3.4560,1.7242,2.0366,0.6120,38.30,37.96,830,8.3,5.96,0.67,83.0,56.8,26.2
00:39:40,2.9590,1.3712,2.0650,0.6207,38.83,38.50,762,7.62,4.06,0.5,76.2,38.7,37.5
00:40:00,3.1640,1.6291,2.0960,0.6301,39.42,39.08,499,4.99,5.15,0.96,49.9,49.0,0.9
00:40:20,3.2340,1.6677,2.1111,0.6347,39.70,39.37,423,4.23,5.39,1.19,42.3,51.3,-9.0
00:40:40,2.6810,0.4133,2.1196,0.6375,39.86,39.54,178.5,1.785,1.11,0.58,17.9,10.6,7.3
00:41:00,2.3880,0.2802,2.1234,0.6391,39.93,39.64,175.5,1.755,0.67,0.36,17.6,6.4,11.2
00:41:20,2.3610,0.2722,2.1270,0.6406,40.00,39.74,185.1,1.851,0.64,0.32,18.5,6.1,12.4
00:41:40,2.3660,0.2956,2.1309,0.6423,40.07,39.84,470,4.7,0.7,0.14,47.0,6.7,40.3
00:42:00,3.1050,1.6256,2.1451,0.6468,40.34,40.12,554,5.54,5.05,0.85,55.4,48.1,7.3
00:42:20,3.6270,1.8181,2.1744,0.6557,40.89,40.67,814,8.14,6.59,0.76,81.4,62.8,18.6
00:42:40,3.0950,1.6278,2.2045,0.6650,41.46,41.25,727,7.27,5.04,0.65,72.7,48.0,24.7
00:43:00,2.9250,1.5101,2.2301,0.6736,41.94,41.78,609,6.09,4.42,0.68,60.9,42.1,18.8
00:43:20,2.8410,1.2757,2.2514,0.6810,42.34,42.24,501,5.01,3.62,0.68,50.1,34.5,15.6
00:43:40,2.7700,0.4680,2.2551,0.6823,42.41,42.32,342,3.42,1.3,0.36,34.2,12.4,21.8
00:44:00,2.7420,0.5382,2.2635,0.6853,42.57,42.51,300,3.0,1.48,0.46,30.0,14.1,15.9
00:44:20,2.4070,0.3478,2.2687,0.6874,42.66,42.64,242,2.42,0.84,0.32,24.2,8.0,16.2
00:44:40,2.3830,0.3470,2.2733,0.6894,42.75,42.76,248,2.48,0.83,0.31,24.8,7.9,16.9
00:45:00,2.3690,0.3355,2.2778,0.6913,42.84,42.88,225,2.25,0.79,0.33,22.5,7.5,15.0
00:45:20,2.4850,0.5276,2.2836,0.6936,42.94,43.02,865,8.65,1.31,0.14,86.5,12.5,74.0
00:45:40,3.7500,1.8784,2.3226,0.7041,43.68,43.67,870,8.7,7.04,0.76,87.0,67.0,20.0
00:46:00,3.7250,1.8666,2.3614,0.7145,44.41,44.32,862,8.62,6.95,0.75,86.2,66.2,20.0
00:46:20,3.6880,1.8496,2.3995,0.7248,45.12,44.95,855,8.55,6.82,0.75,85.5,65.0,20.5
00:46:40,3.6680,1.8394,2.4370,0.7350,45.83,45.59,847,8.47,6.75,0.74,84.7,64.3,20.4
00:47:00,3.6570,1.8346,2.4743,0.7452,46.53,46.22,847,8.47,6.71,0.74,84.7,63.9,20.8
00:47:20,3.6590,1.8353,2.5117,0.7554,47.23,46.85,847,8.47,6.72,0.74,84.7,64.0,20.7
00:47:40,3.6750,1.8419,2.5492,0.7656,47.94,47.49,851,8.51,6.77,0.74,85.1,64.5,20.6
00:48:00,3.6930,1.8536,2.5870,0.7759,48.65,48.13,855,8.55,6.85,0.75,85.5,65.2,20.3
00:48:20,3.7010,1.8558,2.6252,0.7862,49.37,48.76,856,8.56,6.87,0.75,85.6,65.4,20.2
00:48:40,3.7150,1.8638,2.6635,0.7965,50.09,49.41,862,8.62,6.92,0.75,86.2,65.9,20.3
00:49:00,3.7390,1.8744,2.7023,0.8069,50.82,50.05,867,8.67,7.01,0.76,86.7,66.8,19.9
00:49:20,3.7520,1.8797,2.7414,0.8174,51.56,50.70,871,8.71,7.05,0.76,87.1,67.1,20.0
00:49:40,3.7410,1.8748,2.7805,0.8278,52.29,51.34,872,8.72,7.01,0.75,87.2,66.8,20.4
00:50:00,3.7510,1.8801,2.8196,0.8382,53.03,51.99,874,8.74,7.05,0.75,87.4,67.1,20.3
00:50:20,3.7550,1.8819,2.8589,0.8487,53.76,52.64,871,8.71,7.07,0.76,87.1,67.3,19.8
00:50:40,3.7400,1.8729,2.8979,0.8591,54.50,53.29,867,8.67,7.0,0.75,86.7,66.7,20.0
00:51:00,3.7360,1.8722,2.9367,0.8695,55.23,53.93,870,8.7,6.99,0.75,87.0,66.6,20.4
00:51:20,3.7420,1.8764,2.9756,0.8799,55.96,54.58,873,8.73,7.02,0.75,87.3,66.9,20.4
00:51:40,3.7640,1.8872,3.0149,0.8904,56.70,55.23,881,8.81,7.1,0.75,88.1,67.6,20.5
00:52:00,3.7700,1.8918,3.0545,0.9009,57.44,55.88,886,8.86,7.13,0.75,88.6,67.9,20.7
00:52:20,3.7600,1.8851,3.0941,0.9114,58.19,56.53,872,8.72,7.09,0.76,87.2,67.5,19.7
00:52:40,3.7410,1.8747,3.1327,0.9217,58.91,57.17,881,8.81,7.01,0.74,88.1,66.8,21.3
00:53:00,3.7150,1.8608,3.1714,0.9321,59.64,57.82,864,8.64,6.91,0.75,86.4,65.8,20.6
00:53:20,3.7420,1.8758,3.2099,0.9425,60.37,58.46,883,8.83,7.02,0.74,88.3,66.9,21.4
00:53:40,3.7400,1.8734,3.2488,0.9529,61.10,59.10,882,8.82,7.01,0.74,88.2,66.8,21.4
00:54:00,2.4190,0.3971,3.2710,0.9592,61.51,59.50,279,2.79,0.96,0.32,27.9,9.1,18.8
00:54:20,2.3640,0.3413,3.2755,0.9611,61.60,59.61,268,2.68,0.81,0.28,26.8,7.7,19.1
00:54:40,2.3580,0.3318,3.2798,0.9629,61.68,59.73,277,2.77,0.78,0.26,27.7,7.4,20.3
00:55:00,2.3810,0.3779,3.2846,0.9649,61.77,59.85,704,7.04,0.9,0.12,70.4,8.6,61.8
00:55:20,3.1460,0.6609,3.3053,0.9714,62.16,60.25,387,3.87,2.08,0.5,38.7,19.8,18.9
00:55:40,2.4880,0.3784,3.3112,0.9737,62.27,60.40,281,2.81,0.94,0.31,28.1,9.0,19.1
00:56:00,2.8920,1.3714,3.3248,0.9786,62.53,60.70,631,6.31,3.97,0.59,63.1,37.8,25.3
00:56:20,5.3190,0.0093,3.3380,0.9829,62.77,60.97,691,6.91,0.05,0.01,69.1,0.5,68.6
00:56:40,2.9500,1.5387,3.3616,0.9911,63.22,61.47,621,6.21,4.54,0.68,62.1,43.2,18.9
00:57:00,3.0090,0.5129,3.3769,0.9963,63.51,61.80,309,3.09,1.54,0.47,30.9,14.7,16.2
00:57:20,2.6130,0.4227,3.3834,0.9988,63.63,61.95,291,2.91,1.1,0.35,29.1,10.5,18.6
00:57:40,2.4710,0.3905,3.3889,1.0010,63.73,62.09,282,2.82,0.96,0.32,28.2,9.1,19.1
00:58:00,2.4200,0.3756,3.3941,1.0031,63.83,62.22,284,2.84,0.91,0.3,28.4,8.7,19.7
00:58:20,2.3970,0.3700,3.3990,1.0052,63.92,62.35,290,2.9,0.89,0.29,29.0,8.5,20.5
00:58:40,2.3800,0.3695,3.4039,1.0072,64.01,62.47,300,3.0,0.88,0.27,30.0,8.4,21.6
00:59:00,2.3730,0.3770,3.4089,1.0093,64.11,62.60,578,5.78,0.89,0.14,57.8,8.5,49.3
00:59:20,5.3160,0.0588,3.4224,1.0137,64.36,62.88,686,6.86,0.31,0.04,68.6,3.0,65.6
00:59:40,3.3550,0.8642,3.4429,1.0204,64.75,63.29,338,3.38,2.9,0.8,33.8,27.6,6.2
01:00:00,2.6030,0.4680,3.4496,1.0229,64.87,63.45,327,3.27,1.22,0.35,32.7,11.6,21.1
01:00:20,2.4700,0.4149,3.4555,1.0253,64.98,63.60,313,3.13,1.02,0.3,31.3,9.7,21.6
01:00:40,2.4080,0.3997,3.4610,1.0275,65.09,63.73,303,3.03,0.96,0.3,30.3,9.1,21.2
01:01:00,2.3790,0.3754,3.4660,1.0296,65.18,63.86,302,3.02,0.89,0.28,30.2,8.5,21.7
01:01:20,2.3680,0.3765,3.4709,1.0317,65.27,63.99,330,3.3,0.89,0.25,33.0,8.5,24.5
01:01:40,2.4840,0.6146,3.4781,1.0346,65.41,64.18,745,7.45,1.53,0.19,74.5,14.6,59.9
01:02:00,2.4040,0.4007,3.4962,1.0404,65.75,64.53,288,2.88,0.96,0.31,28.8,9.1,19.7
01:02:20,2.3620,0.3558,3.5009,1.0424,65.84,64.66,274,2.74,0.84,0.29,27.4,8.0,19.4
01:02:40,2.3490,0.3430,3.5054,1.0443,65.92,64.78,273,2.73,0.81,0.28,27.3,7.7,19.6
01:03:00,2.3440,0.3364,3.5098,1.0462,66.01,64.89,269,2.69,0.79,0.27,26.9,7.5,19.4
01:03:20,2.3400,0.3328,3.5142,1.0481,66.09,65.01,265,2.65,0.78,0.28,26.5,7.4,19.1
01:03:40,2.3420,0.3274,3.5185,1.0499,66.17,65.12,263,2.63,0.77,0.27,26.3,7.3,19.0
01:04:00,2.3410,0.3283,3.5227,1.0517,66.25,65.24,261,2.61,0.77,0.28,26.1,7.3,18.8
01:04:20,2.3420,0.3316,3.5270,1.0536,66.33,65.35,271,2.71,0.78,0.27,27.1,7.4,19.7
01:04:40,2.3920,0.4405,3.5322,1.0557,66.43,65.48,688,6.88,1.05,0.14,68.8,10.0,58.8
01:05:00,2.9400,1.4168,3.5523,1.0627,66.80,65.92,568,5.68,4.17,0.69,56.8,39.7,17.1
01:05:20,2.3950,0.3589,3.5641,1.0670,67.03,66.18,267,2.67,0.86,0.3,26.7,8.2,18.5
01:05:40,2.3800,0.3630,3.5688,1.0689,67.11,66.30,778,7.78,0.86,0.1,77.8,8.2,69.6
01:06:00,3.7290,1.8683,3.6004,1.0783,67.71,66.88,876,8.76,6.97,0.74,87.6,66.4,21.2
01:06:20,3.5190,1.7697,3.6368,1.0884,68.39,67.51,652,6.52,6.23,0.89,65.2,59.3,5.9
01:06:40,2.5470,0.5201,3.6520,1.0937,68.68,67.84,658,6.58,1.32,0.19,65.8,12.6,53.2
01:07:00,1.2070,0.2329,3.6632,1.0980,68.89,68.11,832,8.32,0.28,0.03,83.2,2.7,80.5
01:07:20,3.7080,1.8571,3.6993,1.1080,69.57,68.73,855,8.55,6.89,0.75,85.5,65.6,19.9
01:07:40,3.4160,1.7035,3.7336,1.1178,70.21,69.33,822,8.22,5.82,0.66,82.2,55.4,26.8
01:08:00,3.5690,1.7887,3.7685,1.1277,70.87,69.95,842,8.42,6.38,0.71,84.2,60.8,23.4
01:08:20,3.6290,1.8200,3.8050,1.1377,71.56,70.57,852,8.52,6.6,0.72,85.2,62.9,22.3
01:08:40,3.6050,1.8073,3.8413,1.1478,72.24,71.19,836,8.36,6.52,0.73,83.6,62.1,21.5
01:09:00,3.6420,1.8283,3.8778,1.1579,72.93,71.82,852,8.52,6.66,0.73,85.2,63.4,21.8
01:09:20,3.6770,1.8462,3.9153,1.1681,73.63,72.45,861,8.61,6.79,0.74,86.1,64.7,21.4
01:09:40,3.6820,1.8439,3.9530,1.1784,74.34,73.09,860,8.6,6.79,0.74,86.0,64.7,21.3
01:10:00,2.9350,1.3559,3.9826,1.1872,74.90,73.64,349,3.49,3.98,1.07,34.9,37.9,-3.0
01:10:20,2.3690,0.3282,3.9879,1.1894,75.00,73.78,245,2.45,0.78,0.3,24.5,7.4,17.1
01:10:40,2.3410,0.2800,3.9917,1.1910,75.07,73.88,232,2.32,0.66,0.27,23.2,6.3,16.9
01:11:00,2.3410,0.2827,3.9954,1.1926,75.14,73.97,224,2.24,0.66,0.28,22.4,6.3,16.1
01:11:20,2.3440,0.2767,3.9990,1.1941,75.21,74.07,218,2.18,0.65,0.28,21.8,6.2,15.6
01:11:40,2.3470,0.2793,4.0026,1.1957,75.27,74.17,216,2.16,0.66,0.29,21.6,6.3,15.3
01:12:00,2.3500,0.2730,4.0062,1.1972,75.34,74.26,213,2.13,0.64,0.28,21.3,6.1,15.2
01:12:20,2.3490,0.2701,4.0097,1.1987,75.41,74.35,209,2.09,0.63,0.28,20.9,6.0,14.9
01:12:40,2.3490,0.2705,4.0133,1.2002,75.47,74.45,210,2.1,0.64,0.28,21.0,6.1,14.9
01:13:00,2.3510,0.2752,4.0169,1.2018,75.54,74.54,211,2.11,0.65,0.29,21.1,6.2,14.9
01:13:20,2.3550,0.2811,4.0205,1.2033,75.61,74.64,214,2.14,0.66,0.29,21.4,6.3,15.1
01:13:40,2.3570,0.2831,4.0242,1.2049,75.68,74.73,218,2.18,0.67,0.29,21.8,6.4,15.4
01:14:00,2.3600,0.2884,4.0279,1.2064,75.75,74.83,224,2.24,0.68,0.28,22.4,6.5,15.9
01:14:20,2.3620,0.2965,4.0318,1.2081,75.82,74.93,231,2.31,0.7,0.28,23.1,6.7,16.4
01:14:40,2.3650,0.3039,4.0358,1.2098,75.90,75.04,235,2.35,0.72,0.29,23.5,6.9,16.6
01:15:00,2.3660,0.3027,4.0398,1.2114,75.97,75.14,237,2.37,0.72,0.28,23.7,6.9,16.8
01:15:20,2.3680,0.3142,4.0438,1.2132,76.05,75.25,246,2.46,0.74,0.28,24.6,7.0,17.6
01:15:40,2.3730,0.3228,4.0481,1.2150,76.13,75.36,267,2.67,0.77,0.27,26.7,7.3,19.4
01:16:00,2.4090,0.4262,4.0531,1.2171,76.22,75.49,341,3.41,1.03,0.28,34.1,9.8,24.3
01:16:20,2.3970,0.3734,4.0583,1.2192,76.32,75.63,303,3.03,0.9,0.28,30.3,8.6,21.7
01:16:40,2.4010,0.3884,4.0634,1.2214,76.42,75.76,312,3.12,0.93,0.28,31.2,8.9,22.3
01:17:00,2.3970,0.3769,4.0684,1.2235,76.51,75.89,329,3.29,0.9,0.26,32.9,8.6,24.3
01:17:20,2.3820,0.3297,4.0732,1.2254,76.60,76.01,250,2.5,0.79,0.3,25.0,7.5,17.5
01:17:40,2.3770,0.3155,4.0774,1.2272,76.68,76.12,242,2.42,0.75,0.29,24.2,7.1,17.1
01:18:00,2.3790,0.3224,4.0816,1.2290,76.76,76.23,256,2.56,0.77,0.28,25.6,7.3,18.3
01:18:20,2.3810,0.3184,4.0858,1.2307,76.84,76.34,250,2.5,0.76,0.28,25.0,7.2,17.8
01:18:40,2.3840,0.3276,4.0901,1.2326,76.92,76.45,259,2.59,0.78,0.28,25.9,7.4,18.5
01:19:00,2.3840,0.3335,4.0945,1.2344,77.00,76.57,272,2.72,0.8,0.27,27.2,7.6,19.6
01:19:20,2.4010,0.3716,4.0993,1.2364,77.09,76.69,582,5.82,0.89,0.14,58.2,8.5,49.7
01:19:40,3.4480,1.7383,4.1323,1.2460,77.71,77.28,852,8.52,5.99,0.66,85.2,57.0,28.2
01:20:00,3.1710,1.6256,4.1637,1.2554,78.30,77.87,641,6.41,5.15,0.75,64.1,49.0,15.1
01:20:20,2.9260,1.3461,4.1836,1.2623,78.68,78.30,839,8.39,3.94,0.44,83.9,37.5,46.4
01:20:40,3.6920,1.8502,4.2215,1.2725,79.39,78.93,850,8.5,6.83,0.75,85.0,65.0,20.0
01:21:00,3.6490,1.8281,4.2589,1.2827,80.09,79.56,839,8.39,6.67,0.74,83.9,63.5,20.4
01:21:20,3.6700,1.8420,4.2962,1.2929,80.79,80.20,844,8.44,6.76,0.75,84.4,64.4,20.0
01:21:40,3.7260,1.8682,4.3343,1.3032,81.51,80.84,498,4.98,6.96,1.31,49.8,66.3,-16.5
01:22:00,2.8970,1.3568,4.3472,1.3074,81.75,81.09,625,6.25,3.93,0.59,62.5,37.4,25.1
01:22:20,3.6590,1.8326,4.3834,1.3174,82.43,81.71,844,8.44,6.71,0.74,84.4,63.9,20.5
01:22:40,2.9640,1.4533,4.4139,1.3265,83.01,82.28,848,8.48,4.31,0.48,84.8,41.0,43.8
01:23:00,3.7200,1.8647,4.4523,1.3368,83.73,82.92,854,8.54,6.94,0.76,85.4,66.1,19.3
01:23:20,3.7110,1.8600,4.4908,1.3472,84.45,83.56,856,8.56,6.9,0.75,85.6,65.7,19.9
01:23:40,3.0440,1.5729,4.5234,1.3568,85.07,84.16,295,2.95,4.79,1.52,29.5,45.6,-16.1
01:24:00,2.4130,0.3880,4.5286,1.3589,85.16,84.29,620,6.2,0.94,0.14,62.0,9.0,53.0
01:24:20,3.9060,0.6581,4.5479,1.3648,85.53,84.66,304,3.04,2.57,0.79,30.4,24.5,5.9
01:24:40,2.8000,1.0903,4.5600,1.3692,85.75,84.93,333,3.33,3.05,0.86,33.3,29.0,4.3
01:25:00,2.5230,0.4210,4.5664,1.3716,85.87,85.08,314,3.14,1.06,0.32,31.4,10.1,21.3
01:25:20,2.4950,0.4527,4.5726,1.3741,85.99,85.23,590,5.9,1.13,0.18,59.0,10.8,48.2
01:25:40,5.3200,0.0092,4.5826,1.3776,86.18,85.45,535,5.35,0.05,0.01,53.5,0.5,53.0
01:26:00,2.5760,1.0045,4.5899,1.3805,86.32,85.63,331,3.31,2.59,0.73,33.1,24.7,8.4
01:26:20,3.7980,1.9027,4.6149,1.3873,86.79,86.05,868,8.68,7.23,0.78,86.8,68.9,17.9
01:26:40,3.7720,1.8860,4.6546,1.3978,87.53,86.70,763,7.63,7.11,0.87,76.3,67.7,8.6
01:27:00,1.4810,0.0063,4.6652,1.4015,87.73,86.93,407,4.07,0.01,0.0,40.7,0.1,40.6
01:27:20,3.5000,1.7483,4.6824,1.4064,88.06,87.23,809,8.09,6.12,0.71,80.9,58.3,22.6
01:27:40,3.7160,1.8638,4.7204,1.4167,88.77,87.87,861,8.61,6.93,0.75,86.1,66.0,20.1
01:28:00,5.3180,0.0378,4.7407,1.4220,89.15,88.20,306,3.06,0.2,0.06,30.6,1.9,28.7
01:28:20,3.1050,1.6165,4.7582,1.4278,89.48,88.56,595,5.95,5.02,0.79,59.5,47.8,11.7
01:28:40,3.7650,1.8874,4.7916,1.4375,90.11,89.16,850,8.5,7.11,0.78,85.0,67.7,17.3
01:29:00,3.5580,1.7782,4.8283,1.4476,90.80,89.79,805,8.05,6.33,0.73,80.5,60.3,20.2
01:29:20,2.9790,1.4903,4.8576,1.4566,91.35,90.35,383,3.83,4.44,1.08,38.3,42.3,-4.0
01:29:40,2.8580,1.2137,4.8674,1.4600,91.54,90.56,802,8.02,3.47,0.4,80.2,33.0,47.2
01:30:00,3.0120,1.5858,4.8983,1.4693,92.12,91.14,414,4.14,4.78,1.08,41.4,45.5,-4.1
01:30:20,2.9020,1.2660,4.9140,1.4746,92.41,91.46,687,6.87,3.67,0.5,68.7,35.0,33.7
01:30:40,3.4160,1.6973,4.9416,1.4832,92.93,92.00,826,8.26,5.8,0.66,82.6,55.2,27.4
01:31:00,2.6520,0.6328,4.9648,1.4901,93.37,92.43,744,7.44,1.68,0.21,74.4,16.0,58.4
01:31:20,1.3960,0.3584,4.9809,1.4956,93.67,92.77,645,6.45,0.5,0.07,64.5,4.8,59.7
01:31:40,3.5630,1.7809,5.0092,1.5043,94.20,93.31,757,7.57,6.35,0.78,75.7,60.5,15.2
01:32:00,3.2180,1.6767,5.0390,1.5135,94.76,93.88,594,5.94,5.4,0.85,59.4,51.4,8.0
01:32:20,3.1500,0.6082,5.0549,1.5189,95.06,94.21,286,2.86,1.92,0.63,28.6,18.3,10.3
01:32:40,2.5060,0.3794,5.0605,1.5211,95.17,94.35,259,2.59,0.95,0.34,25.9,9.0,16.9
01:33:00,2.4180,0.3628,5.0655,1.5231,95.26,94.47,258,2.58,0.88,0.32,25.8,8.4,17.4
01:33:20,2.3990,0.3671,5.0702,1.5251,95.35,94.60,321,3.21,0.88,0.26,32.1,8.4,23.7
01:33:40,3.3430,1.6860,5.0887,1.5309,95.70,94.96,810,8.1,5.64,0.65,81.0,53.7,27.3
01:34:00,3.3680,1.6966,5.1220,1.5406,96.32,95.56,787,7.87,5.71,0.68,78.7,54.4,24.3
01:34:20,2.4010,0.3635,5.1370,1.5458,96.61,95.88,282,2.82,0.87,0.29,28.2,8.3,19.9
01:34:40,2.3810,0.3531,5.1417,1.5478,96.69,96.00,324,3.24,0.84,0.24,32.4,8.0,24.4
01:35:00,2.4780,0.5276,5.1479,1.5503,96.81,96.16,474,4.74,1.31,0.26,47.4,12.5,34.9
01:35:20,3.3410,1.6928,5.1666,1.5563,97.16,96.53,734,7.34,5.66,0.72,73.4,53.9,19.5
01:35:40,2.4020,0.3600,5.1843,1.5619,97.50,96.88,336,3.36,0.86,0.24,33.6,8.2,25.4
01:36:00,5.3200,0.0085,5.1878,1.5633,97.56,96.97,345,3.45,0.05,0.01,34.5,0.5,34.0
01:36:20,2.5440,0.3393,5.1939,1.5655,97.68,97.10,216,2.16,0.86,0.37,21.6,8.2,13.4
01:36:40,2.4200,0.3067,5.1981,1.5672,97.75,97.21,207,2.07,0.74,0.33,20.7,7.0,13.7
01:37:00,2.3770,0.2899,5.2020,1.5688,97.83,97.31,202,2.02,0.69,0.32,20.2,6.6,13.6
01:37:20,2.3580,0.2771,5.2057,1.5704,97.90,97.41,197.5,1.975,0.65,0.31,19.8,6.2,13.6
01:37:40,2.3510,0.2696,5.2092,1.5719,97.96,97.50,193.5,1.935,0.63,0.3,19.4,6.0,13.4
01:38:00,2.3520,0.2702,5.2128,1.5734,98.03,97.59,193.0,1.93,0.64,0.31,19.3,6.1,13.2
01:38:20,2.3560,0.2788,5.2163,1.5749,98.10,97.69,194.5,1.945,0.66,0.32,19.5,6.3,13.2
01:38:40,2.3600,0.2797,5.2200,1.5765,98.17,97.78,200.0,2.0,0.66,0.31,20.0,6.3,13.7
01:39:00,2.3640,0.2812,5.2236,1.5780,98.24,97.88,213,2.13,0.66,0.29,21.3,6.3,15.0
01:39:20,2.3750,0.3145,5.2276,1.5797,98.31,97.98,334,3.34,0.75,0.21,33.4,7.1,26.3
01:39:40,2.3790,0.3140,5.2319,1.5815,98.39,98.10,250,2.5,0.75,0.28,25.0,7.1,17.9
01:40:00,2.4040,0.3832,5.2367,1.5835,98.48,98.22,406,4.06,0.92,0.21,40.6,8.8,31.8
01:40:20,2.9650,1.3598,5.2509,1.5885,98.75,98.53,482,4.82,4.03,0.78,48.2,38.4,9.8
01:40:40,2.6100,0.4024,5.2542,1.5901,98.81,98.63,468,4.68,1.05,0.21,46.8,10.0,36.8
01:41:00,2.9660,1.5193,5.2780,1.5981,99.26,99.13,315,3.15,4.51,1.34,31.5,43.0,-11.5
01:41:20,2.6210,0.4080,5.2844,1.6005,99.38,99.27,285,2.85,1.07,0.35,28.5,10.2,18.3
01:41:40,2.9520,1.4937,5.3003,1.6060,99.68,99.61,385,3.85,4.41,1.07,38.5,42.0,-3.5
01:42:00,2.8530,0.5042,5.3092,1.6089,99.84,99.80,273,2.73,1.44,0.49,27.3,13.7,13.6
01:42:20,2.5010,0.3827,5.3149,1.6112,99.95,99.94,259,2.59,0.96,0.35,25.9,9.1,16.8