File: output/11/sunjack-3.csv
Time,Voltage(V),Current(A),Energy(Wh),Capacity(Ah),Energy Proportion(%),Capacity Proportion(%),Irradiance(W/m2),Power(W),Sunlight Level
00:00:00,3.3500,2.4219,0.0225,0.0067,0.71,0.66,834.0,8.11,8.34
00:00:10,3.1950,2.3308,0.0432,0.0132,1.36,1.29,90.9,7.45,0.909
00:00:20,3.0300,2.2018,0.0618,0.0193,1.95,1.89,837.0,6.67,8.37
00:00:30,3.3380,2.4039,0.0840,0.0260,2.65,2.54,841.0,8.02,8.41
00:00:40,3.3880,2.4068,0.1067,0.0327,3.36,3.19,849.0,8.15,8.49
00:00:50,3.3440,2.4163,0.1291,0.0394,4.07,3.84,809.0,8.08,8.09
00:01:00,3.3430,2.4188,0.1516,0.0461,4.77,4.50,842.0,8.09,8.42
00:01:10,3.3410,2.4151,0.1740,0.0528,5.48,5.15,844.0,8.07,8.44
00:01:20,3.3620,2.4283,0.1967,0.0596,6.20,5.81,848.0,8.16,8.48
00:01:30,3.3620,2.4283,0.2194,0.0663,6.91,6.47,852.0,8.16,8.52
00:01:40,3.3680,2.4313,0.2421,0.0731,7.63,7.13,852.0,8.19,8.52
00:01:50,3.3760,2.4358,0.2650,0.0798,8.35,7.79,856.0,8.22,8.56
00:02:00,3.3730,2.4327,0.2878,0.0866,9.06,8.45,858.0,8.21,8.58
00:02:10,3.3630,2.4260,0.3104,0.0933,9.78,9.11,858.0,8.16,8.58
00:02:20,3.3680,2.4296,0.3331,0.1001,10.49,9.77,860.0,8.18,8.6
00:02:30,3.2580,2.3690,0.3546,0.1067,11.17,10.41,856.0,7.72,8.56
00:02:40,2.6900,1.0207,0.3622,0.1095,11.41,10.68,573.0,2.75,5.73
00:02:50,2.8080,1.5597,0.3744,0.1138,11.79,11.11,656.0,4.38,6.56
00:03:00,2.6220,0.8951,0.3809,0.1163,12.00,11.35,281.0,2.35,2.81
00:03:10,2.6120,0.8532,0.3871,0.1187,12.19,11.58,300.0,2.23,3.0
00:03:20,2.6090,0.8371,0.3932,0.1210,12.38,11.81,228.0,2.18,2.28
00:03:30,2.8230,1.8943,0.4080,0.1263,12.85,12.32,686.0,5.35,6.86
00:03:40,3.3510,2.4138,0.4305,0.1330,13.56,12.98,861.0,8.09,8.61
00:03:50,3.3780,2.4309,0.4533,0.1397,14.28,13.64,865.0,8.21,8.65
00:04:00,2.8940,1.8939,0.4685,0.1450,14.76,14.15,767.0,5.48,7.67
00:04:10,2.5550,0.6433,0.4731,0.1468,14.90,14.32,225.0,1.64,2.25
00:04:20,2.5710,0.7248,0.4783,0.1488,15.06,14.52,167.3,1.86,1.673
00:04:30,2.5700,0.7198,0.4834,0.1508,15.23,14.71,214.0,1.85,2.14
00:04:40,2.5750,0.7364,0.4887,0.1528,15.39,14.91,313.0,1.9,3.13
00:04:50,2.5700,0.7100,0.4937,0.1548,15.55,15.11,204.0,1.82,2.04
00:05:00,2.5300,0.5818,0.4978,0.1564,15.68,15.26,157.9,1.47,1.579
00:05:10,2.5350,0.5945,0.5020,0.1581,15.81,15.43,159.3,1.51,1.593
00:05:20,2.5700,0.7130,0.5071,0.1601,15.97,15.62,237.0,1.83,2.37
00:05:30,2.5970,0.8349,0.5131,0.1624,16.16,15.85,246.0,2.17,2.46
00:05:40,2.5850,0.7983,0.5188,0.1646,16.34,16.06,227.0,2.06,2.27
00:05:50,2.6640,1.1485,0.5273,0.1678,16.61,16.37,324.0,3.06,3.24
00:06:00,3.0280,2.2799,0.5465,0.1741,17.21,16.99,699.0,6.9,6.99
00:06:10,3.3630,2.3896,0.5688,0.1807,17.92,17.64,759.0,8.04,7.59
00:06:20,3.2260,2.3551,0.5899,0.1873,18.58,18.28,876.0,7.6,8.76
00:06:30,2.5310,0.5841,0.5941,0.1889,18.71,18.44,345.0,1.48,3.45
00:06:40,2.5210,0.5622,0.5980,0.1905,18.83,18.59,155.5,1.42,1.555
00:06:50,2.5210,0.5643,0.6019,0.1920,18.96,18.74,152.4,1.42,1.524
00:07:00,2.5970,0.8829,0.6083,0.1945,19.16,18.98,202.0,2.29,2.02
00:07:10,2.5430,0.6760,0.6131,0.1964,19.31,19.16,190.5,1.72,1.905
00:07:20,2.6440,1.1102,0.6212,0.1995,19.57,19.46,336.0,2.94,3.36
00:07:30,2.6570,1.1661,0.6298,0.2027,19.84,19.78,400.0,3.1,4.0
00:07:40,2.8710,2.1182,0.6467,0.2086,20.37,20.35,600.0,6.08,6.0
00:07:50,2.5290,0.6867,0.6516,0.2105,20.52,20.54,259.0,1.74,2.59
00:08:00,2.7310,1.5389,0.6632,0.2148,20.89,20.96,571.0,4.2,5.71
00:08:10,2.8330,2.0765,0.6796,0.2205,21.40,21.52,593.0,5.88,5.93
00:08:20,3.3530,2.4081,0.7020,0.2272,22.11,22.17,843.0,8.07,8.43
00:08:30,3.3390,2.4012,0.7243,0.2339,22.81,22.82,840.0,8.02,8.4
00:08:40,3.3300,2.3969,0.7465,0.2405,23.51,23.47,837.0,7.98,8.37
00:08:50,3.3210,2.3913,0.7685,0.2472,24.21,24.12,836.0,7.94,8.36
00:09:00,3.3110,2.3877,0.7905,0.2538,24.90,24.77,833.0,7.91,8.33
00:09:10,3.3170,2.3900,0.8125,0.2605,25.59,25.42,833.0,7.93,8.33
00:09:20,3.3210,2.3928,0.8346,0.2671,26.29,26.07,834.0,7.95,8.34
00:09:30,3.3190,2.3928,0.8566,0.2738,26.98,26.71,834.0,7.94,8.34
00:09:40,3.3160,2.3897,0.8786,0.2804,27.67,27.36,834.0,7.92,8.34
00:09:50,3.3210,2.3925,0.9007,0.2870,28.37,28.01,836.0,7.95,8.36
00:10:00,3.3200,2.3918,0.9228,0.2937,29.06,28.66,837.0,7.94,8.37
00:10:10,3.3200,2.3913,0.9448,0.3003,29.76,29.31,837.0,7.94,8.37
00:10:20,3.3130,2.3890,0.9668,0.3070,30.45,29.96,836.0,7.91,8.36
00:10:30,3.3090,2.3805,0.9887,0.3136,31.14,30.60,835.0,7.88,8.35
00:10:40,3.3070,2.3842,1.0106,0.3202,31.83,31.25,835.0,7.88,8.35
00:10:50,3.3030,2.3806,1.0324,0.3268,32.52,31.89,834.0,7.86,8.34
00:11:00,3.3090,2.3843,1.0543,0.3334,33.21,32.54,835.0,7.89,8.35
00:11:10,3.3060,2.3813,1.0762,0.3400,33.90,33.18,835.0,7.87,8.35
00:11:20,3.2990,2.3782,1.0980,0.3467,34.58,33.83,837.0,7.85,8.37
00:11:30,3.2970,2.3753,1.1198,0.3533,35.27,34.47,838.0,7.83,8.38
00:11:40,3.2870,2.3674,1.1414,0.3598,35.95,35.11,831.0,7.78,8.31
00:11:50,3.2700,2.3576,1.1628,0.3664,36.62,35.75,832.0,7.71,8.32
00:12:00,3.2660,2.3517,1.1841,0.3729,37.30,36.39,832.0,7.68,8.32
00:12:10,3.2770,2.3618,1.2056,0.3795,37.97,37.03,837.0,7.74,8.37
00:12:20,3.2730,2.3578,1.2271,0.3860,38.65,37.67,836.0,7.72,8.36
00:12:30,2.7810,1.4957,1.2386,0.3902,39.01,38.08,648.0,4.16,6.48
00:12:40,2.5440,0.6709,1.2434,0.3920,39.16,38.26,335.0,1.71,3.35
00:12:50,2.4760,0.4540,1.2465,0.3933,39.26,38.38,127.3,1.12,1.273
00:13:00,2.4710,0.4251,1.2494,0.3945,39.35,38.50,119.7,1.05,1.197
00:13:10,2.4690,0.4094,1.2522,0.3956,39.44,38.61,114.7,1.01,1.147
00:13:20,2.4690,0.4041,1.2550,0.3967,39.53,38.72,113.4,1.0,1.134
00:13:30,2.4690,0.3986,1.2577,0.3978,39.61,38.82,113.5,0.98,1.135
00:13:40,2.4690,0.3923,1.2604,0.3989,39.70,38.93,111.8,0.97,1.118
00:13:50,2.4700,0.3882,1.2631,0.4000,39.78,39.04,110.4,0.96,1.104
00:14:00,2.4710,0.3871,1.2657,0.4011,39.87,39.14,110.1,0.96,1.101
00:14:10,2.4730,0.3840,1.2684,0.4022,39.95,39.25,108.3,0.95,1.083
00:14:20,2.4760,0.3849,1.2710,0.4032,40.03,39.35,108.6,0.95,1.086
00:14:30,2.4790,0.3870,1.2737,0.4043,40.12,39.45,109.1,0.96,1.091
00:14:40,2.4820,0.3887,1.2764,0.4054,40.20,39.56,110.4,0.96,1.104
00:14:50,2.4830,0.3885,1.2790,0.4065,40.29,39.66,111.0,0.96,1.11
00:15:00,2.4840,0.3870,1.2817,0.4075,40.37,39.77,111.2,0.96,1.112
00:15:10,2.4840,0.3862,1.2844,0.4086,40.45,39.87,111.5,0.96,1.115
00:15:20,2.4840,0.3859,1.2870,0.4097,40.54,39.98,111.9,0.96,1.119
00:15:30,2.4820,0.3860,1.2897,0.4108,40.62,40.08,112.3,0.96,1.123
00:15:40,2.4810,0.3866,1.2924,0.4118,40.70,40.19,112.7,0.96,1.127
00:15:50,2.4830,0.3884,1.2950,0.4129,40.79,40.29,113.2,0.96,1.132
00:16:00,2.4850,0.3919,1.2977,0.4140,40.87,40.40,113.8,0.97,1.138
00:16:10,2.4890,0.3959,1.3005,0.4151,40.96,40.51,114.4,0.99,1.144
00:16:20,2.4930,0.4008,1.3033,0.4162,41.05,40.62,116.0,1.0,1.16
00:16:30,2.4930,0.4048,1.3061,0.4173,41.14,40.73,118.4,1.01,1.184
00:16:40,2.4950,0.4072,1.3089,0.4185,41.23,40.84,119.6,1.02,1.196
00:16:50,2.4960,0.4086,1.3117,0.4196,41.31,40.95,120.7,1.02,1.207
00:17:00,2.4970,0.4096,1.3146,0.4207,41.40,41.06,122.2,1.02,1.222
00:17:10,2.4970,0.4090,1.3174,0.4219,41.49,41.17,120.5,1.02,1.205
00:17:20,2.4980,0.4085,1.3202,0.4230,41.58,41.28,119.4,1.02,1.194
00:17:30,2.4980,0.4080,1.3231,0.4241,41.67,41.39,121.6,1.02,1.216
00:17:40,2.4990,0.4075,1.3259,0.4253,41.76,41.50,120.3,1.02,1.203
00:17:50,2.5010,0.4080,1.3287,0.4264,41.85,41.61,119.9,1.02,1.199
00:18:00,2.5000,0.4093,1.3316,0.4275,41.94,41.72,122.4,1.02,1.224
00:18:10,2.5010,0.4116,1.3344,0.4287,42.03,41.83,121.5,1.03,1.215
00:18:20,2.5020,0.4125,1.3373,0.4298,42.12,41.95,121.1,1.03,1.211
00:18:30,2.5030,0.4121,1.3402,0.4310,42.21,42.06,123.1,1.03,1.231
00:18:40,2.5040,0.4115,1.3430,0.4321,42.30,42.17,121.3,1.03,1.213
00:18:50,2.5040,0.4110,1.3459,0.4333,42.39,42.28,120.6,1.03,1.206
00:19:00,2.5040,0.4104,1.3487,0.4344,42.48,42.39,121.7,1.03,1.217
00:19:10,2.5050,0.4108,1.3516,0.4355,42.57,42.50,122.5,1.03,1.225
00:19:20,2.5050,0.4104,1.3544,0.4367,42.66,42.61,121.2,1.03,1.212
00:19:30,2.5070,0.4096,1.3573,0.4378,42.75,42.73,119.7,1.03,1.197
00:19:40,2.5070,0.4076,1.3601,0.4390,42.84,42.84,120.4,1.02,1.204
00:19:50,2.5080,0.4057,1.3630,0.4401,42.93,42.95,120.9,1.02,1.209
00:20:00,2.5090,0.4018,1.3658,0.4412,43.02,43.05,118.6,1.01,1.186
00:20:10,2.5090,0.3985,1.3685,0.4423,43.10,43.16,116.7,1.0,1.167
00:20:20,2.5100,0.3960,1.3713,0.4434,43.19,43.27,116.7,0.99,1.167
00:20:30,2.5100,0.3943,1.3740,0.4445,43.28,43.38,117.5,0.99,1.175
00:20:40,2.5110,0.3939,1.3768,0.4456,43.36,43.48,116.5,0.99,1.165
00:20:50,2.5130,0.3945,1.3795,0.4467,43.45,43.59,116.4,0.99,1.164
00:21:00,2.5130,0.3950,1.3823,0.4478,43.54,43.70,116.5,0.99,1.165
00:21:10,2.5150,0.3963,1.3851,0.4489,43.63,43.81,116.6,1.0,1.166
00:21:20,2.5160,0.3983,1.3879,0.4500,43.71,43.91,117.0,1.0,1.17
00:21:30,2.5170,0.4014,1.3907,0.4511,43.80,44.02,117.8,1.01,1.178
00:21:40,2.5190,0.4054,1.3935,0.4522,43.89,44.13,118.8,1.02,1.188
00:21:50,2.5200,0.4089,1.3964,0.4534,43.98,44.24,119.6,1.03,1.196
00:22:00,2.5220,0.4146,1.3993,0.4545,44.07,44.35,120.0,1.05,1.2
00:22:10,2.5220,0.4195,1.4022,0.4557,44.16,44.47,121.6,1.06,1.216
00:22:20,2.5240,0.4241,1.4052,0.4569,44.26,44.58,123.8,1.07,1.238
00:22:30,2.5260,0.4290,1.4082,0.4581,44.35,44.70,125.3,1.08,1.253
00:22:40,2.5280,0.4354,1.4112,0.4593,44.45,44.82,125.5,1.1,1.255
00:22:50,2.5300,0.4428,1.4144,0.4605,44.55,44.94,127.6,1.12,1.276
00:23:00,2.5310,0.4510,1.4175,0.4617,44.65,45.06,132.0,1.14,1.32
00:23:10,2.5350,0.4622,1.4208,0.4630,44.75,45.19,133.5,1.17,1.335
00:23:20,2.5370,0.4754,1.4241,0.4644,44.86,45.31,137.0,1.21,1.37
00:23:30,2.5420,0.5052,1.4277,0.4658,44.97,45.45,146.2,1.28,1.462
00:23:40,2.7010,1.0819,1.4358,0.4688,45.22,45.74,180.0,2.92,1.8
00:23:50,2.7180,1.2145,1.4450,0.4721,45.51,46.07,291.0,3.3,2.91
00:24:00,3.0270,2.2508,1.4639,0.4784,46.11,46.68,784.0,6.81,7.84
00:24:10,3.2780,2.3696,1.4855,0.4850,46.79,47.33,838.0,7.77,8.38
00:24:20,3.3000,2.3688,1.5072,0.4915,47.47,47.97,692.0,7.82,6.92
00:24:30,2.9580,2.0919,1.5244,0.4974,48.01,48.54,690.0,6.19,6.9
00:24:40,3.3920,2.4418,1.5474,0.5041,48.74,49.20,866.0,8.28,8.66
00:24:50,3.2680,2.3743,1.5690,0.5107,49.42,49.84,876.0,7.76,8.76
00:25:00,2.6050,0.8308,1.5750,0.5130,49.61,50.07,211.0,2.16,2.11
00:25:10,3.2200,2.3525,1.5960,0.5196,50.27,50.70,838.0,7.58,8.38
00:25:20,2.8880,1.8082,1.6105,0.5246,50.73,51.19,648.0,5.22,6.48
00:25:30,2.5450,0.6054,1.6148,0.5263,50.86,51.36,173.1,1.54,1.731
00:25:40,2.5620,0.6876,1.6197,0.5282,51.01,51.54,221.0,1.76,2.21
00:25:50,2.7450,1.4859,1.6310,0.5323,51.37,51.95,249.0,4.08,2.49
00:26:00,3.0530,2.3011,1.6505,0.5387,51.99,52.57,756.0,7.03,7.56
00:26:10,2.8680,1.7986,1.6649,0.5437,52.44,53.06,560.0,5.16,5.6
00:26:20,2.8530,1.7429,1.6787,0.5485,52.87,53.53,585.0,4.97,5.85
00:26:30,3.3100,2.3842,1.7006,0.5552,53.56,54.18,839.0,7.89,8.39
00:26:40,3.2860,2.3719,1.7222,0.5618,54.25,54.82,829.0,7.79,8.29
00:26:50,3.3150,2.3905,1.7443,0.5684,54.94,55.47,843.0,7.92,8.43
00:27:00,2.7690,1.3744,1.7548,0.5722,55.27,55.84,496.0,3.81,4.96
00:27:10,2.8570,1.7611,1.7688,0.5771,55.71,56.32,668.0,5.03,6.68
00:27:20,2.8290,1.6163,1.7815,0.5816,56.11,56.76,495.0,4.57,4.95
00:27:30,3.2950,2.3739,1.8032,0.5882,56.80,57.40,815.0,7.82,8.15
00:27:40,3.3530,2.4135,1.8257,0.5949,57.50,58.05,843.0,8.09,8.43
00:27:50,3.3630,2.4176,1.8483,0.6016,58.22,58.71,850.0,8.13,8.5
00:28:00,3.3680,2.4216,1.8710,0.6083,58.93,59.37,852.0,8.16,8.52
00:28:10,3.3580,2.4185,1.8935,0.6151,59.64,60.02,856.0,8.12,8.56
00:28:20,3.3730,2.4244,1.9162,0.6218,60.35,60.68,846.0,8.18,8.46
00:28:30,3.4050,2.4456,1.9394,0.6286,61.08,61.34,859.0,8.33,8.59
00:28:40,3.4010,2.4423,1.9624,0.6354,61.81,62.00,865.0,8.31,8.65
00:28:50,3.3960,2.4390,1.9854,0.6421,62.53,62.66,861.0,8.28,8.61
00:29:00,3.3780,2.4267,2.0082,0.6489,63.25,63.32,860.0,8.2,8.6
00:29:10,3.3540,2.4094,2.0307,0.6556,63.96,63.98,855.0,8.08,8.55
00:29:20,3.3660,2.4151,2.0532,0.6623,64.67,64.63,855.0,8.13,8.55
00:29:30,3.3670,2.4160,2.0758,0.6690,65.38,65.29,857.0,8.13,8.57
00:29:40,3.3640,2.4152,2.0984,0.6757,66.09,65.94,861.0,8.12,8.61
00:29:50,3.3680,2.4181,2.1210,0.6824,66.81,66.60,864.0,8.14,8.64
00:30:00,3.3940,2.4342,2.1440,0.6892,67.53,67.26,869.0,8.26,8.69
00:30:10,2.8800,1.8987,2.1592,0.6945,68.01,67.77,428.0,5.47,4.28
00:30:20,2.5750,0.8342,2.1651,0.6968,68.19,68.00,228.0,2.15,2.28
00:30:30,2.5400,0.6869,2.1700,0.6987,68.35,68.18,196.5,1.74,1.965
00:30:40,2.5330,0.6532,2.1746,0.7005,68.49,68.36,184.0,1.65,1.84
00:30:50,2.5250,0.6283,2.1790,0.7022,68.63,68.53,176.4,1.59,1.764
00:31:00,2.5210,0.6198,2.1833,0.7040,68.77,68.70,172.7,1.56,1.727
00:31:10,2.5220,0.6255,2.1877,0.7057,68.91,68.87,171.6,1.58,1.716
00:31:20,2.5300,0.6419,2.1922,0.7075,69.05,69.04,176.0,1.62,1.76
00:31:30,2.6010,0.9382,2.1990,0.7101,69.26,69.30,204.0,2.44,2.04
00:31:40,2.5780,0.8649,2.2052,0.7125,69.46,69.53,431.0,2.23,4.31
00:31:50,2.8910,2.1078,2.2221,0.7184,69.99,70.10,646.0,6.09,6.46
00:32:00,3.3630,2.4123,2.2446,0.7251,70.70,70.76,854.0,8.11,8.54
00:32:10,3.3570,2.4089,2.2671,0.7317,71.41,71.41,851.0,8.09,8.51
00:32:20,2.6370,0.9640,2.2742,0.7344,71.63,71.67,533.0,2.54,5.33
00:32:30,2.5250,0.7031,2.2791,0.7364,71.78,71.86,190.0,1.78,1.9
00:32:40,2.6610,1.2619,2.2884,0.7399,72.08,72.20,372.0,3.36,3.72
00:32:50,3.3330,2.3707,2.3104,0.7465,72.77,72.85,789.0,7.9,7.89
00:33:00,3.3520,2.4044,2.3328,0.7531,73.47,73.50,843.0,8.06,8.43
00:33:10,2.8750,2.0264,2.3490,0.7588,73.98,74.05,813.0,5.83,8.13
00:33:20,2.9750,2.2017,2.3671,0.7649,74.56,74.64,617.0,6.55,6.17
00:33:30,3.3620,2.4127,2.3897,0.7716,75.27,75.30,854.0,8.11,8.54
00:33:40,2.8640,1.9453,2.4052,0.7770,75.75,75.82,769.0,5.57,7.69
00:33:50,2.5150,0.6359,2.4096,0.7788,75.89,76.00,169.5,1.6,1.695
00:34:00,2.5140,0.6294,2.4140,0.7805,76.03,76.17,165.7,1.58,1.657
00:34:10,3.3610,2.4083,2.4365,0.7872,76.74,76.82,831.0,8.09,8.31
00:34:20,3.3540,2.4073,2.4589,0.7939,77.45,77.47,841.0,8.07,8.41
00:34:30,3.3370,2.3968,2.4811,0.8005,78.15,78.12,838.0,8.0,8.38
00:34:40,3.3170,2.3865,2.5031,0.8072,78.84,78.77,834.0,7.92,8.34
00:34:50,3.3070,2.3815,2.5250,0.8138,79.53,79.41,834.0,7.88,8.34
00:35:00,3.2960,2.3747,2.5467,0.8204,80.21,80.06,829.0,7.83,8.29
00:35:10,3.2890,2.3687,2.5684,0.8270,80.90,80.70,828.0,7.79,8.28
00:35:20,3.2790,2.3628,2.5899,0.8335,81.57,81.34,827.0,7.75,8.27
00:35:30,3.2590,2.3476,2.6111,0.8400,82.24,81.98,821.0,7.65,8.21
00:35:40,3.2350,2.3343,2.6321,0.8465,82.90,82.61,816.0,7.55,8.16
00:35:50,3.2160,2.3224,2.6529,0.8530,83.56,83.24,809.0,7.47,8.09
00:36:00,3.2020,2.3139,2.6734,0.8594,84.20,83.87,808.0,7.41,8.08
00:36:10,3.2220,2.3292,2.6943,0.8659,84.86,84.50,807.0,7.5,8.07
00:36:20,2.6720,1.1077,2.7025,0.8690,85.12,84.80,738.0,2.96,7.38
00:36:30,2.5000,0.5982,2.7067,0.8706,85.25,84.96,158.6,1.5,1.586
00:36:40,2.4820,0.5256,2.7103,0.8721,85.37,85.10,142.8,1.3,1.428
00:36:50,2.4740,0.4906,2.7137,0.8734,85.47,85.24,131.4,1.21,1.314
00:37:00,2.4680,0.4666,2.7169,0.8747,85.57,85.36,123.3,1.15,1.233
00:37:10,2.4640,0.4516,2.7200,0.8760,85.67,85.49,117.3,1.11,1.173
00:37:20,2.4610,0.4417,2.7230,0.8772,85.76,85.60,113.8,1.09,1.138
00:37:30,2.4580,0.4348,2.7259,0.8784,85.86,85.72,111.2,1.07,1.112
00:37:40,2.4590,0.4318,2.7289,0.8796,85.95,85.84,110.4,1.06,1.104
00:37:50,2.4580,0.4281,2.7318,0.8808,86.04,85.96,109.5,1.05,1.095
00:38:00,2.4580,0.4240,2.7347,0.8820,86.13,86.07,107.9,1.04,1.079
00:38:10,2.4580,0.4212,2.7376,0.8832,86.22,86.19,106.3,1.04,1.063
00:38:20,2.4600,0.4202,2.7405,0.8843,86.32,86.30,105.6,1.03,1.056
00:38:30,2.4610,0.4207,2.7433,0.8855,86.41,86.41,105.9,1.04,1.059
00:38:40,2.4630,0.4229,2.7462,0.8867,86.50,86.53,107.4,1.04,1.074
00:38:50,2.4640,0.4256,2.7491,0.8879,86.59,86.64,109.4,1.05,1.094
00:39:00,2.4670,0.4294,2.7521,0.8891,86.68,86.76,109.5,1.06,1.095
00:39:10,2.4690,0.4341,2.7551,0.8903,86.78,86.88,109.5,1.07,1.095
00:39:20,2.4720,0.4403,2.7581,0.8915,86.87,87.00,111.5,1.09,1.115
00:39:30,2.4760,0.4524,2.7612,0.8927,86.97,87.12,116.1,1.12,1.161
00:39:40,2.4830,0.4708,2.7644,0.8940,87.07,87.25,121.2,1.17,1.212
00:39:50,2.4910,0.4978,2.7679,0.8954,87.18,87.38,128.4,1.24,1.284
00:40:00,2.7030,1.3754,2.7782,0.8992,87.50,87.75,204.0,3.72,2.04
00:40:10,2.8390,2.0384,2.7943,0.9049,88.01,88.31,606.0,5.79,6.06
00:40:20,2.9020,1.9816,2.8103,0.9104,88.51,88.84,737.0,5.75,7.37
00:40:30,2.8420,1.7709,2.8242,0.9153,88.95,89.32,549.0,5.03,5.49
00:40:40,2.9180,2.0851,2.8411,0.9211,89.49,89.89,647.0,6.08,6.47
00:40:50,3.0780,2.2984,2.8608,0.9275,90.11,90.51,786.0,7.07,7.86
00:41:00,3.2170,2.3251,2.8816,0.9340,90.76,91.14,797.0,7.48,7.97
00:41:10,3.2160,2.3238,2.9023,0.9404,91.41,91.77,797.0,7.47,7.97
00:41:20,3.2130,2.3217,2.9230,0.9469,92.07,92.40,798.0,7.46,7.98
00:41:30,3.2080,2.3199,2.9437,0.9533,92.72,93.03,796.0,7.44,7.96
00:41:40,3.2140,2.3246,2.9645,0.9598,93.37,93.66,797.0,7.47,7.97
00:41:50,3.2230,2.3294,2.9853,0.9662,94.03,94.29,801.0,7.51,8.01
00:42:00,3.2350,2.3371,3.0063,0.9727,94.69,94.93,803.0,7.56,8.03
00:42:10,3.2340,2.3372,3.0273,0.9792,95.35,95.56,798.0,7.56,7.98
00:42:20,3.2300,2.3350,3.0483,0.9857,96.01,96.19,803.0,7.54,8.03
00:42:30,3.2300,2.3351,3.0692,0.9922,96.67,96.83,802.0,7.54,8.02
00:42:40,3.2340,2.3370,3.0902,0.9987,97.33,97.46,803.0,7.56,8.03
00:42:50,3.2480,2.3456,3.1114,1.0052,98.00,98.09,807.0,7.62,8.07
00:43:00,3.2510,2.3398,3.1325,1.0117,98.66,98.73,805.0,7.61,8.05
00:43:10,3.2550,2.3434,3.1537,1.0182,99.33,99.36,801.0,7.63,8.01
00:43:20,3.2590,2.3452,3.1749,1.0247,100.00,100.00,930.0,7.64,9.3
00:43:30,3.2500,2.3442,3.1961,1.0312,100.67,100.64,791.0,7.62,7.91