File: output/2/aeiusny-1.csv
Time,Voltage(V),Current(A),Energy(Wh),Capacity(Ah),Energy Proportion(%),Capacity Proportion(%),Irradiance(W/m2),Power(W),Power Score,Sun Score,Irradiance/100,Efficiency(%),Efficiency Score
00:00:00,4.5630,1.9989,0.0253,0.0056,0.37,0.36,669.0,9.12,91.2,66.9,6.69,0.83,-24.3
00:00:10,4.5630,2.0001,0.0507,0.0111,0.74,0.73,667.0,9.13,91.3,66.7,6.67,0.83,-24.6
00:00:20,4.5720,1.9994,0.0761,0.0167,1.12,1.09,662.0,9.14,91.4,66.2,6.62,0.84,-25.2
00:00:30,4.5760,1.9993,0.1015,0.0222,1.49,1.46,660.0,9.15,91.5,66.0,6.6,0.84,-25.5
00:00:40,4.5680,1.9986,0.1269,0.0278,1.86,1.82,656.0,9.13,91.3,65.6,6.56,0.84,-25.7
00:00:50,4.5650,1.9999,0.1522,0.0333,2.23,2.19,655.0,9.13,91.3,65.5,6.55,0.84,-25.8
00:01:00,4.5630,1.9986,0.1775,0.0389,2.61,2.55,654.0,9.12,91.2,65.4,6.54,0.85,-25.8
00:01:10,4.5630,1.9981,0.2029,0.0444,2.98,2.92,654.0,9.12,91.2,65.4,6.54,0.85,-25.8
00:01:20,4.5600,1.9990,0.2282,0.0500,3.35,3.28,657.0,9.12,91.2,65.7,6.57,0.84,-25.5
00:01:30,4.5580,1.9979,0.2535,0.0555,3.72,3.65,657.0,9.11,91.1,65.7,6.57,0.84,-25.4
00:01:40,4.5540,1.9992,0.2788,0.0611,4.09,4.01,657.0,9.1,91.0,65.7,6.57,0.84,-25.3
00:01:50,4.5510,1.9982,0.3040,0.0666,4.46,4.38,658.0,9.09,90.9,65.8,6.58,0.84,-25.1
00:02:00,4.5500,1.9985,0.3293,0.0722,4.83,4.74,658.0,9.09,90.9,65.8,6.58,0.84,-25.1
00:02:10,4.5480,1.9987,0.3545,0.0777,5.21,5.11,659.0,9.09,90.9,65.9,6.59,0.84,-25.0
00:02:20,4.5480,1.9976,0.3798,0.0833,5.58,5.47,659.0,9.09,90.9,65.9,6.59,0.84,-25.0
00:02:30,4.5440,1.9987,0.4050,0.0888,5.95,5.84,659.0,9.08,90.8,65.9,6.59,0.84,-24.9
00:02:40,4.5420,1.9987,0.4302,0.0944,6.32,6.20,658.0,9.08,90.8,65.8,6.58,0.84,-25.0
00:02:50,4.5410,1.9982,0.4554,0.0999,6.69,6.56,662.0,9.07,90.7,66.2,6.62,0.83,-24.5
00:03:00,4.5380,2.0001,0.4806,0.1055,7.06,6.93,662.0,9.08,90.8,66.2,6.62,0.83,-24.6
00:03:10,4.5360,1.9991,0.5058,0.1110,7.43,7.29,662.0,9.07,90.7,66.2,6.62,0.83,-24.5
00:03:20,4.5340,1.9985,0.5310,0.1166,7.80,7.66,661.0,9.06,90.6,66.1,6.61,0.83,-24.5
00:03:30,4.5310,1.9987,0.5562,0.1222,8.17,8.02,660.0,9.06,90.6,66.0,6.6,0.83,-24.6
00:03:40,4.5310,1.9984,0.5813,0.1277,8.53,8.39,660.0,9.05,90.5,66.0,6.6,0.83,-24.5
00:03:50,4.5290,1.9972,0.6064,0.1332,8.90,8.75,662.0,9.05,90.5,66.2,6.62,0.83,-24.3
00:04:00,4.5250,1.9991,0.6316,0.1388,9.27,9.12,665.0,9.05,90.5,66.5,6.65,0.82,-24.0
00:04:10,4.5220,1.9981,0.6567,0.1444,9.64,9.48,666.0,9.04,90.4,66.6,6.66,0.82,-23.8
00:04:20,0.5780,0.0000,0.6567,0.1444,9.64,9.48,666.0,0.0,0.0,66.6,6.66,0.0,66.6
00:04:30,4.5270,1.9978,0.6818,0.1499,10.01,9.85,666.0,9.04,90.4,66.6,6.66,0.82,-23.8
00:04:40,4.5210,1.9979,0.7069,0.1555,10.38,10.21,664.0,9.03,90.3,66.4,6.64,0.82,-23.9
00:04:50,4.5180,1.9981,0.7320,0.1610,10.75,10.58,666.0,9.03,90.3,66.6,6.66,0.82,-23.7
00:05:00,4.5160,1.9990,0.7570,0.1666,11.11,10.94,666.0,9.03,90.3,66.6,6.66,0.82,-23.7
00:05:10,4.5130,1.9982,0.7821,0.1721,11.48,11.31,665.0,9.02,90.2,66.5,6.65,0.82,-23.7
00:05:20,4.5100,1.9984,0.8071,0.1777,11.85,11.67,664.0,9.01,90.1,66.4,6.64,0.82,-23.7
00:05:30,4.5060,1.9987,0.8321,0.1832,12.22,12.03,666.0,9.01,90.1,66.6,6.66,0.82,-23.5
00:05:40,4.5060,1.9984,0.8571,0.1888,12.58,12.40,666.0,9.0,90.0,66.6,6.66,0.82,-23.4
00:05:50,4.5020,1.9983,0.8821,0.1943,12.95,12.76,667.0,9.0,90.0,66.7,6.67,0.82,-23.3
00:06:00,4.4990,1.9985,0.9071,0.1999,13.32,13.13,667.0,8.99,89.9,66.7,6.67,0.82,-23.2
00:06:10,4.4960,1.9985,0.9321,0.2054,13.68,13.49,670.0,8.99,89.9,67.0,6.7,0.81,-22.9
00:06:20,4.4950,1.9986,0.9570,0.2110,14.05,13.86,670.0,8.98,89.8,67.0,6.7,0.81,-22.8
00:06:30,4.4920,1.9984,0.9820,0.2165,14.42,14.22,671.0,8.98,89.8,67.1,6.71,0.81,-22.7
00:06:40,4.4900,1.9982,1.0069,0.2221,14.78,14.59,670.0,8.97,89.7,67.0,6.7,0.81,-22.7
00:06:50,4.4900,1.9982,1.0318,0.2276,15.15,14.95,671.0,8.97,89.7,67.1,6.71,0.81,-22.6
00:07:00,4.4890,1.9978,1.0567,0.2332,15.51,15.32,670.0,8.97,89.7,67.0,6.7,0.81,-22.7
00:07:10,4.4870,1.9982,1.0816,0.2387,15.88,15.68,672.0,8.97,89.7,67.2,6.72,0.81,-22.5
00:07:20,4.4850,1.9983,1.1065,0.2443,16.25,16.05,672.0,8.96,89.6,67.2,6.72,0.81,-22.4
00:07:30,4.4850,1.9980,1.1314,0.2498,16.61,16.41,672.0,8.96,89.6,67.2,6.72,0.81,-22.4
00:07:40,4.4830,1.9983,1.1563,0.2554,16.98,16.77,674.0,8.96,89.6,67.4,6.74,0.81,-22.2
00:07:50,4.4810,1.9969,1.1811,0.2609,17.34,17.14,673.0,8.95,89.5,67.3,6.73,0.81,-22.2
00:08:00,4.4790,1.9985,1.2060,0.2665,17.71,17.50,672.0,8.95,89.5,67.2,6.72,0.81,-22.3
00:08:10,4.4780,1.9986,1.2309,0.2720,18.07,17.87,673.0,8.95,89.5,67.3,6.73,0.81,-22.2
00:08:20,4.4770,1.9986,1.2557,0.2776,18.44,18.23,676.0,8.95,89.5,67.6,6.76,0.8,-21.9
00:08:30,4.4750,1.9987,1.2806,0.2831,18.80,18.60,676.0,8.94,89.4,67.6,6.76,0.8,-21.8
00:08:40,4.4750,1.9983,1.3054,0.2887,19.17,18.96,676.0,8.94,89.4,67.6,6.76,0.8,-21.8
00:08:50,4.4730,1.9984,1.3302,0.2942,19.53,19.33,675.0,8.94,89.4,67.5,6.75,0.8,-21.9
00:09:00,4.4710,1.9985,1.3551,0.2998,19.89,19.69,676.0,8.94,89.4,67.6,6.76,0.8,-21.8
00:09:10,4.4690,1.9984,1.3799,0.3053,20.26,20.06,681.0,8.93,89.3,68.1,6.81,0.79,-21.2
00:09:20,0.5520,0.0000,1.3799,0.3053,20.26,20.06,678.0,0.0,0.0,67.8,6.78,0.0,67.8
00:09:30,4.4810,1.9994,1.4048,0.3109,20.62,20.42,678.0,8.96,89.6,67.8,6.78,0.8,-21.8
00:09:40,4.4780,1.9975,1.4296,0.3164,20.99,20.79,676.0,8.94,89.4,67.6,6.76,0.8,-21.8
00:09:50,4.4730,1.9986,1.4544,0.3220,21.35,21.15,675.0,8.94,89.4,67.5,6.75,0.8,-21.9
00:10:00,4.4730,1.9981,1.4793,0.3275,21.72,21.51,683.0,8.94,89.4,68.3,6.83,0.79,-21.1
00:10:10,4.4710,1.9982,1.5041,0.3331,22.08,21.88,680.0,8.93,89.3,68.0,6.8,0.8,-21.3
00:10:20,4.4700,1.9981,1.5289,0.3386,22.45,22.24,678.0,8.93,89.3,67.8,6.78,0.8,-21.5
00:10:30,4.4720,1.9976,1.5537,0.3442,22.81,22.61,677.0,8.93,89.3,67.7,6.77,0.8,-21.6
00:10:40,4.4950,1.9977,1.5786,0.3497,23.18,22.97,681.0,8.98,89.8,68.1,6.81,0.8,-21.7
00:10:50,1.9690,0.2190,1.5798,0.3503,23.19,23.01,681.0,0.43,4.3,68.1,6.81,0.04,63.8
00:11:00,4.4740,1.9992,1.6047,0.3559,23.56,23.38,680.0,8.94,89.4,68.0,6.8,0.8,-21.4
00:11:10,4.4810,1.9980,1.6296,0.3614,23.92,23.74,677.0,8.95,89.5,67.7,6.77,0.8,-21.8
00:11:20,4.5090,1.9974,1.6546,0.3670,24.29,24.11,683.0,9.01,90.1,68.3,6.83,0.8,-21.8
00:11:30,4.5280,1.9972,1.6797,0.3725,24.66,24.47,687.0,9.04,90.4,68.7,6.87,0.8,-21.7
00:11:40,4.9830,0.9054,1.6922,0.3751,24.84,24.64,682.0,4.51,45.1,68.2,6.82,0.4,23.1
00:11:50,4.7180,1.7792,1.7155,0.3800,25.19,24.96,682.0,8.39,83.9,68.2,6.82,0.75,-15.7
00:12:00,4.5760,1.9814,1.7407,0.3855,25.56,25.32,679.0,9.07,90.7,67.9,6.79,0.81,-22.8
00:12:10,4.5190,1.9975,1.7658,0.3910,25.92,25.69,684.0,9.03,90.3,68.4,6.84,0.8,-21.9
00:12:20,4.5080,1.9987,1.7908,0.3966,26.29,26.05,682.0,9.01,90.1,68.2,6.82,0.8,-21.9
00:12:30,4.4990,1.9984,1.8158,0.4022,26.66,26.42,685.0,8.99,89.9,68.5,6.85,0.8,-21.4
00:12:40,4.4980,1.9974,1.8408,0.4077,27.02,26.78,686.0,8.98,89.8,68.6,6.86,0.79,-21.2
00:12:50,4.4890,2.0002,1.8657,0.4133,27.39,27.15,685.0,8.98,89.8,68.5,6.85,0.79,-21.3
00:13:00,5.2260,0.0099,1.8659,0.4133,27.39,27.15,684.0,0.05,0.5,68.4,6.84,0.0,67.9
00:13:10,4.8610,1.3758,1.8844,0.4171,27.67,27.40,686.0,6.69,66.9,68.6,6.86,0.59,1.7
00:13:20,4.5210,1.9983,1.9095,0.4227,28.03,27.76,685.0,9.03,90.3,68.5,6.85,0.8,-21.8
00:13:30,4.5030,1.9977,1.9345,0.4282,28.40,28.13,683.0,9.0,90.0,68.3,6.83,0.8,-21.7
00:13:40,4.4940,1.9984,1.9595,0.4338,28.77,28.49,685.0,8.98,89.8,68.5,6.85,0.79,-21.3
00:13:50,5.2270,0.0099,1.9596,0.4338,28.77,28.49,688.0,0.05,0.5,68.8,6.88,0.0,68.3
00:14:00,4.5320,1.9967,1.9847,0.4393,29.14,28.86,687.0,9.05,90.5,68.7,6.87,0.8,-21.8
00:14:10,4.5030,1.9975,2.0097,0.4449,29.51,29.22,685.0,8.99,89.9,68.5,6.85,0.8,-21.4
00:14:20,4.7990,1.6129,2.0312,0.4494,29.82,29.52,688.0,7.74,77.4,68.8,6.88,0.68,-8.6
00:14:30,2.0280,0.2297,2.0325,0.4500,29.84,29.56,687.0,0.47,4.7,68.7,6.87,0.04,64.0
00:14:40,5.0620,0.6338,2.0414,0.4518,29.97,29.67,688.0,3.21,32.1,68.8,6.88,0.28,36.7
00:14:50,4.5130,1.9987,2.0665,0.4573,30.34,30.04,689.0,9.02,90.2,68.9,6.89,0.79,-21.3
00:15:00,4.4980,1.9979,2.0915,0.4629,30.71,30.40,683.0,8.99,89.9,68.3,6.83,0.8,-21.6
00:15:10,4.6710,1.9105,2.1162,0.4682,31.07,30.75,685.0,8.92,89.2,68.5,6.85,0.79,-20.7
00:15:20,4.5020,1.9991,2.1412,0.4737,31.44,31.12,690.0,9.0,90.0,69.0,6.9,0.79,-21.0
00:15:30,4.7660,1.7041,2.1638,0.4785,31.77,31.43,689.0,8.12,81.2,68.9,6.89,0.71,-12.3
00:15:40,4.5030,1.9987,2.1888,0.4840,32.13,31.79,687.0,9.0,90.0,68.7,6.87,0.79,-21.3
00:15:50,4.5780,1.9908,2.2141,0.4895,32.51,32.16,686.0,9.11,91.1,68.6,6.86,0.8,-22.5
00:16:00,4.5020,1.9982,2.2391,0.4951,32.87,32.52,686.0,9.0,90.0,68.6,6.86,0.8,-21.4
00:16:10,4.5380,1.9976,2.2643,0.5006,33.24,32.89,690.0,9.07,90.7,69.0,6.9,0.8,-21.7
00:16:20,2.0210,0.2767,2.2658,0.5014,33.27,32.94,696.0,0.56,5.6,69.6,6.96,0.05,64.0
00:16:30,4.5240,1.9990,2.2910,0.5070,33.63,33.30,691.0,9.04,90.4,69.1,6.91,0.79,-21.3
00:16:40,5.2290,0.0098,2.2911,0.5070,33.64,33.30,689.0,0.05,0.5,68.9,6.89,0.0,68.4
00:16:50,4.5110,1.9990,2.3162,0.5125,34.00,33.67,690.0,9.02,90.2,69.0,6.9,0.79,-21.2
00:17:00,4.5460,1.9979,2.3414,0.5181,34.37,34.03,691.0,9.08,90.8,69.1,6.91,0.8,-21.7
00:17:10,5.2270,0.0099,2.3415,0.5181,34.38,34.03,694.0,0.05,0.5,69.4,6.94,0.0,68.9
00:17:20,4.5130,1.9984,2.3666,0.5237,34.74,34.40,692.0,9.02,90.2,69.2,6.92,0.79,-21.0
00:17:30,4.5620,1.9961,2.3919,0.5292,35.12,34.76,693.0,9.11,91.1,69.3,6.93,0.8,-21.8
00:17:40,4.9270,0.3154,2.3962,0.5301,35.18,34.82,689.0,1.55,15.5,68.9,6.89,0.14,53.4
00:17:50,4.5190,1.9979,2.4213,0.5356,35.55,35.18,690.0,9.03,90.3,69.0,6.9,0.79,-21.3
00:18:00,4.5520,1.9981,2.4465,0.5412,35.92,35.55,692.0,9.1,91.0,69.2,6.92,0.8,-21.8
00:18:10,5.2280,0.0098,2.4467,0.5412,35.92,35.55,692.0,0.05,0.5,69.2,6.92,0.0,68.7
00:18:20,4.5100,1.9989,2.4717,0.5468,36.29,35.92,695.0,9.02,90.2,69.5,6.95,0.79,-20.7
00:18:30,4.5210,1.9997,2.4968,0.5523,36.66,36.28,694.0,9.04,90.4,69.4,6.94,0.79,-21.0
00:18:40,4.5640,1.9974,2.5222,0.5579,37.03,36.64,694.0,9.12,91.2,69.4,6.94,0.8,-21.8
00:18:50,5.2280,0.0098,2.5223,0.5579,37.03,36.65,699.0,0.05,0.5,69.9,6.99,0.0,69.4
00:19:00,3.6590,1.5003,2.5375,0.5621,37.25,36.92,696.0,5.49,54.9,69.6,6.96,0.48,14.7
00:19:10,4.5200,1.9991,2.5626,0.5676,37.62,37.29,695.0,9.04,90.4,69.5,6.95,0.79,-20.9
00:19:20,4.5280,1.9995,2.5878,0.5732,37.99,37.65,692.0,9.05,90.5,69.2,6.92,0.79,-21.3
00:19:30,5.2280,0.0098,2.5879,0.5732,37.99,37.65,694.0,0.05,0.5,69.4,6.94,0.0,68.9
00:19:40,4.5170,1.9982,2.6130,0.5787,38.36,38.02,694.0,9.03,90.3,69.4,6.94,0.79,-20.9
00:19:50,4.5430,1.9991,2.6382,0.5843,38.73,38.38,694.0,9.08,90.8,69.4,6.94,0.79,-21.4
00:20:00,5.2290,0.0098,2.6384,0.5843,38.73,38.38,694.0,0.05,0.5,69.4,6.94,0.0,68.9
00:20:10,2.4520,0.5687,2.6422,0.5859,38.79,38.49,695.0,1.39,13.9,69.5,6.95,0.12,55.6
00:20:20,4.5230,1.9994,2.6674,0.5915,39.16,38.85,694.0,9.04,90.4,69.4,6.94,0.79,-21.0
00:20:30,4.5560,1.9982,2.6927,0.5970,39.53,39.22,695.0,9.1,91.0,69.5,6.95,0.79,-21.5
00:20:40,5.2290,0.0098,2.6928,0.5970,39.53,39.22,698.0,0.05,0.5,69.8,6.98,0.0,69.3
00:20:50,4.5100,1.9989,2.7178,0.6026,39.90,39.58,693.0,9.02,90.2,69.3,6.93,0.79,-20.9
00:21:00,4.5250,1.9990,2.7430,0.6081,40.27,39.95,694.0,9.05,90.5,69.4,6.94,0.79,-21.1
00:21:10,4.5740,1.9954,2.7683,0.6137,40.64,40.31,698.0,9.13,91.3,69.8,6.98,0.79,-21.5
00:21:20,5.2290,0.0098,2.7685,0.6137,40.64,40.31,697.0,0.05,0.5,69.7,6.97,0.0,69.2
00:21:30,3.8400,1.4691,2.7841,0.6178,40.87,40.58,696.0,5.64,56.4,69.6,6.96,0.49,13.2
00:21:40,4.5230,1.9995,2.8093,0.6233,41.24,40.95,696.0,9.04,90.4,69.6,6.96,0.79,-20.8
00:21:50,4.5540,1.9983,2.8345,0.6289,41.61,41.31,701.0,9.1,91.0,70.1,7.01,0.79,-20.9
00:22:00,5.2290,0.0098,2.8347,0.6289,41.62,41.31,701.0,0.05,0.5,70.1,7.01,0.0,69.6
00:22:10,2.0400,0.1993,2.8358,0.6295,41.63,41.35,701.0,0.41,4.1,70.1,7.01,0.04,66.0
00:22:20,4.5190,1.9979,2.8609,0.6350,42.00,41.71,700.0,9.03,90.3,70.0,7.0,0.78,-20.3
00:22:30,4.5440,1.9976,2.8861,0.6406,42.37,42.08,698.0,9.08,90.8,69.8,6.98,0.79,-21.0
00:22:40,4.8460,1.4323,2.9054,0.6446,42.65,42.34,699.0,6.94,69.4,69.9,6.99,0.6,0.5
00:22:50,4.8270,0.2902,2.9093,0.6454,42.71,42.39,701.0,1.4,14.0,70.1,7.01,0.12,56.1
00:23:00,4.5160,1.9985,2.9343,0.6509,43.08,42.76,699.0,9.03,90.3,69.9,6.99,0.78,-20.4
00:23:10,4.5360,1.9980,2.9595,0.6565,43.45,43.12,701.0,9.06,90.6,70.1,7.01,0.78,-20.5
00:23:20,4.5680,1.9974,2.9849,0.6620,43.82,43.49,701.0,9.12,91.2,70.1,7.01,0.79,-21.1
00:23:30,5.1610,0.2467,2.9884,0.6627,43.87,43.53,702.0,1.27,12.7,70.2,7.02,0.11,57.5
00:23:40,5.1730,0.2275,2.9917,0.6633,43.92,43.57,703.0,1.18,11.8,70.3,7.03,0.1,58.5
00:23:50,4.5180,1.9984,3.0167,0.6689,44.29,43.94,702.0,9.03,90.3,70.2,7.02,0.78,-20.1
00:24:00,4.5290,1.9985,3.0419,0.6744,44.66,44.30,704.0,9.05,90.5,70.4,7.04,0.78,-20.1
00:24:10,0.7200,0.0000,3.0419,0.6744,44.66,44.30,704.0,0.0,0.0,70.4,7.04,0.0,70.4
00:24:20,4.5100,1.9990,3.0669,0.6800,45.03,44.67,707.0,9.02,90.2,70.7,7.07,0.77,-19.5
00:24:30,4.5300,1.9988,3.0921,0.6855,45.40,45.03,705.0,9.05,90.5,70.5,7.05,0.78,-20.0
00:24:40,4.6920,1.9076,3.1169,0.6908,45.76,45.38,706.0,8.95,89.5,70.6,7.06,0.77,-18.9
00:24:50,5.2270,0.0098,3.1171,0.6909,45.76,45.38,703.0,0.05,0.5,70.3,7.03,0.0,69.8
00:25:00,4.5160,1.9992,3.1422,0.6964,46.13,45.75,706.0,9.03,90.3,70.6,7.06,0.78,-19.7
00:25:10,4.5310,1.9990,3.1673,0.7020,46.50,46.11,708.0,9.06,90.6,70.8,7.08,0.78,-19.8
00:25:20,4.6200,1.9744,3.1927,0.7075,46.87,46.47,710.0,9.12,91.2,71.0,7.1,0.78,-20.2
00:25:30,5.2280,0.0099,3.1928,0.7075,46.87,46.47,708.0,0.05,0.5,70.8,7.08,0.0,70.3
00:25:40,4.5160,1.9994,3.2179,0.7130,47.24,46.84,705.0,9.03,90.3,70.5,7.05,0.78,-19.8
00:25:50,4.5270,1.9990,3.2430,0.7186,47.61,47.20,711.0,9.05,90.5,71.1,7.11,0.77,-19.4
00:26:00,4.5600,1.9973,3.2683,0.7241,47.98,47.57,708.0,9.11,91.1,70.8,7.08,0.78,-20.3
00:26:10,5.2280,0.0357,3.2688,0.7242,47.99,47.57,710.0,0.19,1.9,71.0,7.1,0.02,69.1
00:26:20,2.0880,0.2540,3.2703,0.7249,48.01,47.62,709.0,0.53,5.3,70.9,7.09,0.05,65.6
00:26:30,4.5240,1.9986,3.2954,0.7305,48.38,47.98,713.0,9.04,90.4,71.3,7.13,0.77,-19.1
00:26:40,4.5480,1.9989,3.3207,0.7360,48.75,48.35,712.0,9.09,90.9,71.2,7.12,0.77,-19.7
00:26:50,4.8540,1.4198,3.3398,0.7400,49.03,48.61,712.0,6.89,68.9,71.2,7.12,0.59,2.3
00:27:00,5.1610,0.2600,3.3436,0.7407,49.09,48.66,711.0,1.34,13.4,71.1,7.11,0.11,57.7
00:27:10,4.5210,1.9994,3.3687,0.7463,49.46,49.02,712.0,9.04,90.4,71.2,7.12,0.77,-19.2
00:27:20,4.5380,1.9994,3.3939,0.7518,49.83,49.39,713.0,9.07,90.7,71.3,7.13,0.77,-19.4
00:27:30,4.8150,1.6003,3.4153,0.7563,50.14,49.68,711.0,7.71,77.1,71.1,7.11,0.66,-6.0
00:27:40,3.1910,0.4017,3.4188,0.7574,50.19,49.75,713.0,1.28,12.8,71.3,7.13,0.11,58.5
00:27:50,4.5180,2.0002,3.4439,0.7629,50.56,50.12,717.0,9.04,90.4,71.7,7.17,0.76,-18.7
00:28:00,4.5480,1.9986,3.4692,0.7685,50.93,50.48,714.0,9.09,90.9,71.4,7.14,0.77,-19.5
00:28:10,5.2290,0.0099,3.4693,0.7685,50.93,50.48,712.0,0.05,0.5,71.2,7.12,0.0,70.7
00:28:20,4.5200,1.9988,3.4944,0.7741,51.30,50.85,716.0,9.03,90.3,71.6,7.16,0.76,-18.7
00:28:30,4.5380,1.9991,3.5196,0.7796,51.67,51.21,717.0,9.07,90.7,71.7,7.17,0.77,-19.0
00:28:40,5.1610,0.2863,3.5237,0.7804,51.73,51.26,718.0,1.48,14.8,71.8,7.18,0.12,57.0
00:28:50,2.7580,0.7724,3.5296,0.7826,51.82,51.40,719.0,2.13,21.3,71.9,7.19,0.18,50.6
00:29:00,4.5260,1.9987,3.5548,0.7881,52.19,51.77,718.0,9.05,90.5,71.8,7.18,0.76,-18.7
00:29:10,0.5320,0.0000,3.5548,0.7881,52.19,51.77,717.0,0.0,0.0,71.7,7.17,0.0,71.7
00:29:20,4.6020,1.9862,3.5802,0.7936,52.56,52.13,716.0,9.14,91.4,71.6,7.16,0.77,-19.8
00:29:30,2.8670,0.8427,3.5869,0.7960,52.66,52.29,719.0,2.42,24.2,71.9,7.19,0.2,47.7
00:29:40,4.5300,1.9977,3.6120,0.8015,53.03,52.65,718.0,9.05,90.5,71.8,7.18,0.76,-18.7
00:29:50,4.6150,1.9777,3.6374,0.8070,53.40,53.01,722.0,9.13,91.3,72.2,7.22,0.77,-19.1
00:30:00,5.2270,0.0140,3.6376,0.8071,53.40,53.01,722.0,0.07,0.7,72.2,7.22,0.01,71.5
00:30:10,4.5180,1.9987,3.6627,0.8126,53.77,53.38,721.0,9.03,90.3,72.1,7.21,0.76,-18.2
00:30:20,4.5400,1.9983,3.6879,0.8182,54.14,53.74,723.0,9.07,90.7,72.3,7.23,0.76,-18.4
00:30:30,4.6070,1.9836,3.7132,0.8237,54.52,54.10,722.0,9.14,91.4,72.2,7.22,0.77,-19.2
00:30:40,5.2290,0.0099,3.7134,0.8237,54.52,54.11,718.0,0.05,0.5,71.8,7.18,0.0,71.3
00:30:50,2.0640,0.2141,3.7146,0.8243,54.54,54.15,715.0,0.44,4.4,71.5,7.15,0.04,67.1
00:31:00,4.5210,1.9987,3.7397,0.8298,54.90,54.51,715.0,9.04,90.4,71.5,7.15,0.77,-18.9
00:31:10,4.5380,1.9987,3.7649,0.8354,55.27,54.87,718.0,9.07,90.7,71.8,7.18,0.77,-18.9
00:31:20,4.6150,1.9786,3.7903,0.8409,55.65,55.24,721.0,9.13,91.3,72.1,7.21,0.77,-19.2
00:31:30,5.2290,0.0099,3.7904,0.8409,55.65,55.24,719.0,0.05,0.5,71.9,7.19,0.0,71.4
00:31:40,2.6160,0.3124,3.7927,0.8418,55.68,55.29,720.0,0.82,8.2,72.0,7.2,0.07,63.8
00:31:50,4.5190,1.9985,3.8178,0.8473,56.05,55.66,720.0,9.03,90.3,72.0,7.2,0.76,-18.3
00:32:00,4.5290,1.9998,3.8429,0.8529,56.42,56.02,717.0,9.06,90.6,71.7,7.17,0.77,-18.9
00:32:10,4.5610,1.9979,3.8682,0.8584,56.79,56.39,718.0,9.11,91.1,71.8,7.18,0.77,-19.3
00:32:20,5.0730,0.6270,3.8771,0.8602,56.92,56.50,716.0,3.18,31.8,71.6,7.16,0.27,39.8
00:32:30,5.2250,0.0321,3.8775,0.8603,56.93,56.51,720.0,0.17,1.7,72.0,7.2,0.01,70.3
00:32:40,3.5770,1.2956,3.8904,0.8639,57.12,56.75,715.0,4.63,46.3,71.5,7.15,0.39,25.2
00:32:50,4.5230,1.9985,3.9155,0.8694,57.48,57.11,713.0,9.04,90.4,71.3,7.13,0.77,-19.1
00:33:00,4.5470,1.9983,3.9408,0.8750,57.86,57.47,719.0,9.09,90.9,71.9,7.19,0.77,-19.0
00:33:10,4.7500,1.7820,3.9643,0.8799,58.20,57.80,720.0,8.46,84.6,72.0,7.2,0.71,-12.6
00:33:20,5.2280,0.0099,3.9644,0.8799,58.20,57.80,720.0,0.05,0.5,72.0,7.2,0.0,71.5
00:33:30,3.7060,1.4128,3.9790,0.8839,58.42,58.06,721.0,5.24,52.4,72.1,7.21,0.44,19.7
00:33:40,4.5240,1.9988,4.0041,0.8894,58.78,58.42,723.0,9.04,90.4,72.3,7.23,0.76,-18.1
00:33:50,4.5440,1.9987,4.0293,0.8950,59.16,58.79,719.0,9.08,90.8,71.9,7.19,0.77,-18.9
00:34:00,4.7480,1.7700,4.0527,0.8999,59.50,59.11,718.0,8.4,84.0,71.8,7.18,0.71,-12.2
00:34:10,4.5710,1.9973,4.0780,0.9054,59.87,59.48,720.0,9.13,91.3,72.0,7.2,0.77,-19.3
00:34:20,4.3860,1.8745,4.1009,0.9106,60.21,59.82,721.0,8.22,82.2,72.1,7.21,0.69,-10.1
00:34:30,4.5270,1.9987,4.1260,0.9162,60.57,60.18,723.0,9.05,90.5,72.3,7.23,0.76,-18.2
00:34:40,4.5910,1.9905,4.1514,0.9217,60.95,60.55,726.0,9.14,91.4,72.6,7.26,0.76,-18.8
00:34:50,5.2280,0.0098,4.1515,0.9218,60.95,60.55,730.0,0.05,0.5,73.0,7.3,0.0,72.5
00:35:00,4.3660,1.8456,4.1739,0.9269,61.28,60.88,729.0,8.06,80.6,72.9,7.29,0.67,-7.7
00:35:10,4.5240,1.9991,4.1990,0.9324,61.65,61.25,726.0,9.04,90.4,72.6,7.26,0.75,-17.8
00:35:20,4.5410,1.9993,4.2242,0.9380,62.02,61.61,723.0,9.08,90.8,72.3,7.23,0.76,-18.5
00:35:30,4.6040,1.9843,4.2496,0.9435,62.39,61.98,724.0,9.14,91.4,72.4,7.24,0.77,-19.0
00:35:40,5.2290,0.0098,4.2498,0.9435,62.39,61.98,726.0,0.05,0.5,72.6,7.26,0.0,72.1
00:35:50,5.1600,0.2235,4.2530,0.9442,62.44,62.02,728.0,1.15,11.5,72.8,7.28,0.1,61.3
00:36:00,4.2360,1.7499,4.2736,0.9490,62.74,62.34,725.0,7.41,74.1,72.5,7.25,0.62,-1.6
00:36:10,4.5230,1.9988,4.2987,0.9546,63.11,62.70,729.0,9.04,90.4,72.9,7.29,0.75,-17.5
00:36:20,4.5390,1.9986,4.3239,0.9601,63.48,63.07,727.0,9.07,90.7,72.7,7.27,0.76,-18.0
00:36:30,4.5620,1.9980,4.3492,0.9657,63.85,63.43,727.0,9.11,91.1,72.7,7.27,0.76,-18.4
00:36:40,4.7280,1.8318,4.3732,0.9708,64.20,63.77,726.0,8.66,86.6,72.6,7.26,0.72,-14.0
00:36:50,5.2290,0.0099,4.3734,0.9708,64.21,63.77,726.0,0.05,0.5,72.6,7.26,0.0,72.1
00:37:00,5.2270,0.0100,4.3735,0.9708,64.21,63.77,727.0,0.05,0.5,72.7,7.27,0.0,72.2
00:37:10,2.1510,0.2722,4.3752,0.9716,64.23,63.82,730.0,0.59,5.9,73.0,7.3,0.05,67.1
00:37:20,4.5200,1.9995,4.4003,0.9771,64.60,64.18,730.0,9.04,90.4,73.0,7.3,0.75,-17.4
00:37:30,4.5320,1.9990,4.4254,0.9827,64.97,64.55,731.0,9.06,90.6,73.1,7.31,0.75,-17.5
00:37:40,4.5450,1.9987,4.4507,0.9882,65.34,64.91,728.0,9.08,90.8,72.8,7.28,0.76,-18.0
00:37:50,4.5520,1.9995,4.4759,0.9938,65.71,65.28,728.0,9.1,91.0,72.8,7.28,0.76,-18.2
00:38:00,4.6010,1.9875,4.5013,0.9993,66.09,65.64,734.0,9.14,91.4,73.4,7.34,0.75,-18.0
00:38:10,4.9270,1.1766,4.5174,1.0026,66.32,65.86,734.0,5.8,58.0,73.4,7.34,0.48,15.4
00:38:20,5.0300,0.7659,4.5281,1.0047,66.48,66.00,734.0,3.85,38.5,73.4,7.34,0.32,34.9
00:38:30,5.2290,0.0098,4.5283,1.0047,66.48,66.00,736.0,0.05,0.5,73.6,7.36,0.0,73.1
00:38:40,5.2280,0.0098,4.5284,1.0047,66.48,66.00,729.0,0.05,0.5,72.9,7.29,0.0,72.4
00:38:50,5.2280,0.0099,4.5286,1.0048,66.49,66.00,735.0,0.05,0.5,73.5,7.35,0.0,73.0
00:39:00,5.0900,0.1250,4.5303,1.0051,66.51,66.02,735.0,0.64,6.4,73.5,7.35,0.05,67.1
00:39:10,4.5150,2.0003,4.5554,1.0107,66.88,66.39,736.0,9.03,90.3,73.6,7.36,0.74,-16.7
00:39:20,4.5300,1.9987,4.5806,1.0162,67.25,66.75,739.0,9.05,90.5,73.9,7.39,0.74,-16.6
00:39:30,4.5490,1.9985,4.6058,1.0218,67.62,67.12,741.0,9.09,90.9,74.1,7.41,0.74,-16.8
00:39:40,4.5690,1.9969,4.6312,1.0273,67.99,67.48,737.0,9.12,91.2,73.7,7.37,0.75,-17.5
00:39:50,4.6180,1.9756,4.6565,1.0328,68.36,67.84,740.0,9.12,91.2,74.0,7.4,0.75,-17.2
00:40:00,4.8300,1.5372,4.6771,1.0371,68.67,68.12,737.0,7.42,74.2,73.7,7.37,0.61,-0.5
00:40:10,5.2280,0.0861,4.6784,1.0373,68.68,68.14,737.0,0.45,4.5,73.7,7.37,0.04,69.2
00:40:20,5.2290,0.0099,4.6785,1.0374,68.69,68.14,737.0,0.05,0.5,73.7,7.37,0.0,73.2
00:40:30,5.2280,0.0098,4.6787,1.0374,68.69,68.14,741.0,0.05,0.5,74.1,7.41,0.0,73.6
00:40:40,5.2280,0.0099,4.6788,1.0374,68.69,68.14,739.0,0.05,0.5,73.9,7.39,0.0,73.4
00:40:50,5.1930,0.1217,4.6806,1.0377,68.72,68.17,738.0,0.63,6.3,73.8,7.38,0.05,67.5
00:41:00,3.5840,0.3853,4.6844,1.0388,68.77,68.24,740.0,1.38,13.8,74.0,7.4,0.11,60.2
00:41:10,1.9460,0.1412,4.6852,1.0392,68.78,68.26,742.0,0.27,2.7,74.2,7.42,0.02,71.5
00:41:20,2.1170,0.1240,4.6859,1.0396,68.80,68.29,742.0,0.26,2.6,74.2,7.42,0.02,71.6
00:41:30,2.2640,0.3718,4.6882,1.0406,68.83,68.35,742.0,0.84,8.4,74.2,7.42,0.07,65.8
00:41:40,2.0500,0.2080,4.6894,1.0412,68.85,68.39,740.0,0.43,4.3,74.0,7.4,0.04,69.7
00:41:50,2.0770,0.1942,4.6906,1.0417,68.86,68.43,740.0,0.4,4.0,74.0,7.4,0.03,70.0
00:42:00,2.0110,0.2954,4.6922,1.0425,68.89,68.48,739.0,0.59,5.9,73.9,7.39,0.05,68.0
00:42:10,2.0380,0.2602,4.6937,1.0432,68.91,68.53,738.0,0.53,5.3,73.8,7.38,0.04,68.5
00:42:20,2.1000,0.2086,4.6949,1.0438,68.93,68.57,740.0,0.44,4.4,74.0,7.4,0.04,69.6
00:42:30,2.0250,0.2609,4.6964,1.0446,68.95,68.61,736.0,0.53,5.3,73.6,7.36,0.04,68.3
00:42:40,2.0690,0.2616,4.6979,1.0453,68.97,68.66,738.0,0.54,5.4,73.8,7.38,0.04,68.4
00:42:50,2.4470,0.2439,4.6995,1.0460,68.99,68.71,737.0,0.6,6.0,73.7,7.37,0.05,67.7
00:43:00,2.2170,0.3254,4.7015,1.0469,69.02,68.77,737.0,0.72,7.2,73.7,7.37,0.06,66.5
00:43:10,2.0910,0.2018,4.7027,1.0474,69.04,68.80,737.0,0.42,4.2,73.7,7.37,0.03,69.5
00:43:20,2.0990,0.3398,4.7047,1.0484,69.07,68.86,736.0,0.71,7.1,73.6,7.36,0.06,66.5
00:43:30,2.0540,0.2025,4.7058,1.0489,69.09,68.90,738.0,0.42,4.2,73.8,7.38,0.03,69.6
00:43:40,3.4870,0.3795,4.7095,1.0500,69.14,68.97,740.0,1.32,13.2,74.0,7.4,0.11,60.8
00:43:50,4.5300,0.3253,4.7136,1.0509,69.20,69.03,741.0,1.47,14.7,74.1,7.41,0.12,59.4
00:44:00,0.5990,0.0000,4.7136,1.0509,69.20,69.03,740.0,0.0,0.0,74.0,7.4,0.0,74.0
00:44:10,4.6120,1.9804,4.7390,1.0564,69.57,69.39,737.0,9.13,91.3,73.7,7.37,0.75,-17.6
00:44:20,4.7850,1.6801,4.7613,1.0611,69.90,69.70,743.0,8.04,80.4,74.3,7.43,0.66,-6.1
00:44:30,5.0280,0.8038,4.7725,1.0633,70.07,69.84,746.0,4.04,40.4,74.6,7.46,0.33,34.2
00:44:40,4.9450,1.0457,4.7869,1.0662,70.28,70.04,748.0,5.17,51.7,74.8,7.48,0.42,23.1
00:44:50,4.7110,1.8746,4.8114,1.0714,70.64,70.38,745.0,8.83,88.3,74.5,7.45,0.72,-13.8
00:45:00,4.5670,1.9968,4.8368,1.0769,71.01,70.74,747.0,9.12,91.2,74.7,7.47,0.74,-16.5
00:45:10,4.5480,1.9982,4.8620,1.0825,71.38,71.11,745.0,9.09,90.9,74.5,7.45,0.74,-16.4
00:45:20,4.5340,1.9993,4.8872,1.0880,71.75,71.47,748.0,9.06,90.6,74.8,7.48,0.73,-15.8
00:45:30,4.5240,1.9992,4.9123,1.0936,72.12,71.84,743.0,9.04,90.4,74.3,7.43,0.74,-16.1
00:45:40,4.5210,1.9995,4.9374,1.0992,72.49,72.20,745.0,9.04,90.4,74.5,7.45,0.74,-15.9
00:45:50,4.3820,1.8738,4.9602,1.1044,72.82,72.54,750.0,8.21,82.1,75.0,7.5,0.66,-7.1
00:46:00,2.0890,0.2523,4.9617,1.1051,72.84,72.59,751.0,0.53,5.3,75.1,7.51,0.04,69.8
00:46:10,2.6380,0.3403,4.9642,1.1060,72.88,72.65,755.0,0.9,9.0,75.5,7.55,0.07,66.5
00:46:20,4.5870,0.3421,4.9685,1.1070,72.94,72.71,762.0,1.57,15.7,76.2,7.62,0.12,60.5
00:46:30,5.2280,0.0099,4.9687,1.1070,72.95,72.72,763.0,0.05,0.5,76.3,7.63,0.0,75.8
00:46:40,5.2290,0.0098,4.9688,1.1070,72.95,72.72,761.0,0.05,0.5,76.1,7.61,0.0,75.6
00:46:50,4.9110,1.2253,4.9855,1.1104,73.19,72.94,731.0,6.02,60.2,73.1,7.31,0.5,12.9
00:47:00,4.5860,1.9942,5.0109,1.1160,73.57,73.30,689.0,9.15,91.5,68.9,6.89,0.8,-22.6
00:47:10,4.4380,1.9969,5.0356,1.1215,73.93,73.67,620.0,8.86,88.6,62.0,6.2,0.87,-26.6
00:47:20,4.4110,1.9985,5.0600,1.1271,74.29,74.03,580.0,8.82,88.2,58.0,5.8,0.92,-30.2
00:47:30,4.5460,1.9987,5.0853,1.1326,74.66,74.40,662.0,9.09,90.9,66.2,6.62,0.83,-24.7
00:47:40,4.5290,1.9996,5.1104,1.1382,75.03,74.76,734.0,9.06,90.6,73.4,7.34,0.75,-17.2
00:47:50,4.5200,1.9990,5.1355,1.1437,75.40,75.13,739.0,9.04,90.4,73.9,7.39,0.74,-16.5
00:48:00,4.4820,1.9999,5.1604,1.1493,75.76,75.49,678.0,8.96,89.6,67.8,6.78,0.8,-21.8
00:48:10,3.4090,1.7252,5.1768,1.1541,76.00,75.81,543.0,5.88,58.8,54.3,5.43,0.66,-4.5
00:48:20,2.8210,1.2472,5.1866,1.1575,76.15,76.03,351.0,3.52,35.2,35.1,3.51,0.61,-0.1
00:48:30,5.2330,0.0093,5.1867,1.1576,76.15,76.04,252.0,0.05,0.5,25.2,2.52,0.01,24.7
00:48:40,3.9350,0.3337,5.1903,1.1585,76.20,76.10,198.5,1.31,13.1,19.9,1.985,0.4,6.8
00:48:50,5.2350,0.0092,5.1905,1.1585,76.20,76.10,188.5,0.05,0.5,18.9,1.885,0.02,18.4
00:49:00,2.7320,0.9641,5.1978,1.1612,76.31,76.28,204.0,2.63,26.3,20.4,2.04,0.78,-5.9
00:49:10,2.7770,1.1026,5.2063,1.1642,76.43,76.48,250.0,3.06,30.6,25.0,2.5,0.74,-5.6
00:49:20,2.7690,1.0917,5.2147,1.1673,76.56,76.68,248.0,3.02,30.2,24.8,2.48,0.74,-5.4
00:49:30,2.8270,1.3272,5.2251,1.1710,76.71,76.92,290.0,3.75,37.5,29.0,2.9,0.78,-8.5
00:49:40,3.6290,1.8012,5.2433,1.1760,76.98,77.25,376.0,6.54,65.4,37.6,3.76,1.05,-27.8
00:49:50,4.3880,1.9986,5.2676,1.1815,77.34,77.61,502.0,8.77,87.7,50.2,5.02,1.06,-37.5
00:50:00,5.2290,0.0098,5.2678,1.1815,77.34,77.61,617.0,0.05,0.5,61.7,6.17,0.0,61.2
00:50:10,4.5640,1.9981,5.2931,1.1871,77.71,77.98,638.0,9.12,91.2,63.8,6.38,0.87,-27.4
00:50:20,4.5430,1.9986,5.3183,1.1926,78.08,78.34,723.0,9.08,90.8,72.3,7.23,0.76,-18.5
00:50:30,4.5170,1.9993,5.3434,1.1982,78.45,78.71,734.0,9.03,90.3,73.4,7.34,0.75,-16.9
00:50:40,4.1560,0.3680,5.3477,1.1992,78.51,78.77,741.0,1.53,15.3,74.1,7.41,0.13,58.8
00:50:50,4.5300,1.9990,5.3728,1.2048,78.88,79.14,744.0,9.06,90.6,74.4,7.44,0.74,-16.2
00:51:00,2.0510,0.2105,5.3740,1.2054,78.90,79.18,742.0,0.43,4.3,74.2,7.42,0.04,69.9
00:51:10,4.5330,1.9988,5.3992,1.2109,79.27,79.54,745.0,9.06,90.6,74.5,7.45,0.74,-16.1
00:51:20,5.2280,0.0098,5.3993,1.2109,79.27,79.54,749.0,0.05,0.5,74.9,7.49,0.0,74.4
00:51:30,4.5170,1.9994,5.4244,1.2165,79.64,79.91,748.0,9.03,90.3,74.8,7.48,0.73,-15.5
00:51:40,4.5950,1.9893,5.4498,1.2220,80.01,80.27,746.0,9.14,91.4,74.6,7.46,0.74,-16.8
00:51:50,2.0480,0.2582,5.4513,1.2227,80.03,80.32,751.0,0.53,5.3,75.1,7.51,0.04,69.8
00:52:00,4.5260,1.9988,5.4764,1.2283,80.40,80.68,751.0,9.05,90.5,75.1,7.51,0.73,-15.4
00:52:10,4.5960,1.9886,5.5018,1.2338,80.77,81.05,750.0,9.14,91.4,75.0,7.5,0.74,-16.4
00:52:20,2.2720,0.2759,5.5035,1.2346,80.80,81.10,751.0,0.63,6.3,75.1,7.51,0.05,68.8
00:52:30,4.5230,1.9988,5.5286,1.2401,81.17,81.46,754.0,9.04,90.4,75.4,7.54,0.73,-15.0
00:52:40,4.5710,1.9961,5.5540,1.2457,81.54,81.83,753.0,9.12,91.2,75.3,7.53,0.73,-15.9
00:52:50,5.2280,0.0099,5.5541,1.2457,81.54,81.83,753.0,0.05,0.5,75.3,7.53,0.0,74.8
00:53:00,4.5150,1.9987,5.5792,1.2513,81.91,82.19,756.0,9.02,90.2,75.6,7.56,0.72,-14.6
00:53:10,4.5390,1.9974,5.6044,1.2568,82.28,82.56,756.0,9.07,90.7,75.6,7.56,0.73,-15.1
00:53:20,5.0000,0.9042,5.6169,1.2593,82.46,82.72,755.0,4.52,45.2,75.5,7.55,0.36,30.3
00:53:30,5.1690,0.1875,5.6196,1.2598,82.50,82.76,756.0,0.97,9.7,75.6,7.56,0.08,65.9
00:53:40,4.5200,1.9982,5.6447,1.2654,82.87,83.12,759.0,9.03,90.3,75.9,7.59,0.72,-14.4
00:53:50,0.7780,0.0001,5.6447,1.2654,82.87,83.12,761.0,0.0,0.0,76.1,7.61,0.0,76.1
00:54:00,4.5170,1.9983,5.6698,1.2709,83.24,83.48,759.0,9.03,90.3,75.9,7.59,0.72,-14.4
00:54:10,4.6190,1.9746,5.6951,1.2764,83.61,83.85,757.0,9.12,91.2,75.7,7.57,0.73,-15.5
00:54:20,2.0770,0.2003,5.6963,1.2770,83.63,83.88,761.0,0.42,4.2,76.1,7.61,0.03,71.9
00:54:30,4.5260,1.9981,5.7214,1.2825,84.00,84.25,762.0,9.04,90.4,76.2,7.62,0.72,-14.2
00:54:40,4.5740,1.9949,5.7467,1.2881,84.37,84.61,761.0,9.12,91.2,76.1,7.61,0.73,-15.1
00:54:50,5.2280,0.0098,5.7469,1.2881,84.37,84.61,761.0,0.05,0.5,76.1,7.61,0.0,75.6
00:55:00,4.5130,1.9990,5.7719,1.2937,84.74,84.98,764.0,9.02,90.2,76.4,7.64,0.72,-13.8
00:55:10,4.5270,1.9981,5.7971,1.2992,85.11,85.34,767.0,9.05,90.5,76.7,7.67,0.72,-13.8
00:55:20,4.5610,1.9976,5.8224,1.3048,85.48,85.71,767.0,9.11,91.1,76.7,7.67,0.72,-14.4
00:55:30,5.2290,0.0099,5.8225,1.3048,85.48,85.71,770.0,0.05,0.5,77.0,7.7,0.0,76.5
00:55:40,2.1580,0.2110,5.8238,1.3054,85.50,85.75,769.0,0.46,4.6,76.9,7.69,0.04,72.3
00:55:50,4.5160,1.9991,5.8489,1.3109,85.87,86.11,766.0,9.03,90.3,76.6,7.66,0.71,-13.7
00:56:00,4.5280,1.9983,5.8740,1.3165,86.24,86.48,766.0,9.05,90.5,76.6,7.66,0.72,-13.9
00:56:10,4.5600,1.9973,5.8993,1.3220,86.61,86.84,766.0,9.11,91.1,76.6,7.66,0.72,-14.5
00:56:20,4.8800,1.3238,5.9172,1.3257,86.87,87.08,770.0,6.46,64.6,77.0,7.7,0.51,12.4
00:56:30,5.2290,0.0098,5.9174,1.3257,86.87,87.08,768.0,0.05,0.5,76.8,7.68,0.0,76.3
00:56:40,4.2090,0.3361,5.9213,1.3267,86.93,87.14,766.0,1.41,14.1,76.6,7.66,0.11,62.5
00:56:50,4.5140,1.9988,5.9464,1.3322,87.30,87.51,768.0,9.02,90.2,76.8,7.68,0.71,-13.4
00:57:00,4.5230,1.9986,5.9715,1.3378,87.67,87.87,769.0,9.04,90.4,76.9,7.69,0.71,-13.5
00:57:10,4.5320,1.9981,5.9966,1.3433,88.04,88.24,766.0,9.06,90.6,76.6,7.66,0.72,-14.0
00:57:20,4.5500,1.9981,6.0219,1.3489,88.41,88.60,762.0,9.09,90.9,76.2,7.62,0.72,-14.7
00:57:30,4.5970,1.9872,6.0473,1.3544,88.78,88.97,764.0,9.14,91.4,76.4,7.64,0.73,-15.0
00:57:40,5.0850,0.5929,6.0557,1.3560,88.90,89.07,767.0,3.01,30.1,76.7,7.67,0.24,46.6
00:57:50,5.2290,0.0099,6.0558,1.3561,88.91,89.08,769.0,0.05,0.5,76.9,7.69,0.0,76.4
00:58:00,5.2280,0.0099,6.0559,1.3561,88.91,89.08,769.0,0.05,0.5,76.9,7.69,0.0,76.4
00:58:10,2.2720,0.3203,6.0580,1.3570,88.94,89.14,770.0,0.73,7.3,77.0,7.7,0.06,69.7
00:58:20,4.2080,1.8719,6.0798,1.3622,89.26,89.48,767.0,7.88,78.8,76.7,7.67,0.62,-2.1
00:58:30,4.5200,1.9986,6.1049,1.3677,89.63,89.84,770.0,9.03,90.3,77.0,7.7,0.71,-13.3
00:58:40,4.5260,1.9989,6.1301,1.3733,90.00,90.21,771.0,9.05,90.5,77.1,7.71,0.71,-13.4
00:58:50,0.5520,0.0000,6.1301,1.3733,90.00,90.21,772.0,0.0,0.0,77.2,7.72,0.0,77.2
00:59:00,4.5890,1.9910,6.1554,1.3788,90.37,90.57,768.0,9.14,91.4,76.8,7.68,0.72,-14.6
00:59:10,5.2290,0.0098,6.1556,1.3788,90.37,90.57,767.0,0.05,0.5,76.7,7.67,0.0,76.2
00:59:20,5.2210,0.0175,6.1558,1.3789,90.38,90.58,769.0,0.09,0.9,76.9,7.69,0.01,76.0
00:59:30,2.0850,0.2499,6.1573,1.3796,90.40,90.62,772.0,0.52,5.2,77.2,7.72,0.04,72.0
00:59:40,4.5180,1.9978,6.1824,1.3851,90.76,90.99,765.0,9.03,90.3,76.5,7.65,0.72,-13.8
00:59:50,4.5230,1.9985,6.2075,1.3907,91.13,91.35,770.0,9.04,90.4,77.0,7.7,0.71,-13.4
01:00:00,4.5330,1.9973,6.2326,1.3962,91.50,91.71,770.0,9.05,90.5,77.0,7.7,0.71,-13.5
01:00:10,4.5390,1.9968,6.2578,1.4018,91.87,92.08,767.0,9.06,90.6,76.7,7.67,0.72,-13.9
01:00:20,4.5510,1.9977,6.2830,1.4073,92.24,92.44,770.0,9.09,90.9,77.0,7.7,0.72,-13.9
01:00:30,4.5650,1.9968,6.3084,1.4129,92.61,92.81,768.0,9.12,91.2,76.8,7.68,0.72,-14.4
01:00:40,4.5830,1.9923,6.3337,1.4184,92.99,93.17,770.0,9.13,91.3,77.0,7.7,0.72,-14.3
01:00:50,4.6240,1.9730,6.3591,1.4239,93.36,93.53,773.0,9.12,91.2,77.3,7.73,0.72,-13.9
01:01:00,4.6870,1.9078,6.3839,1.4292,93.72,93.88,769.0,8.94,89.4,76.9,7.69,0.7,-12.5
01:01:10,4.6670,1.9369,6.4090,1.4346,94.09,94.23,768.0,9.04,90.4,76.8,7.68,0.71,-13.6
01:01:20,4.6990,1.8898,6.4337,1.4398,94.45,94.58,769.0,8.88,88.8,76.9,7.69,0.7,-11.9
01:01:30,4.7000,1.8915,6.4584,1.4451,94.82,94.92,769.0,8.89,88.9,76.9,7.69,0.7,-12.0
01:01:40,4.6800,1.9198,6.4833,1.4504,95.18,95.27,767.0,8.98,89.8,76.7,7.67,0.71,-13.1
01:01:50,4.6510,1.9529,6.5086,1.4558,95.55,95.63,772.0,9.08,90.8,77.2,7.72,0.71,-13.6
01:02:00,4.6020,1.9860,6.5340,1.4613,95.93,95.99,769.0,9.14,91.4,76.9,7.69,0.72,-14.5
01:02:10,4.5700,1.9968,6.5593,1.4669,96.30,96.36,767.0,9.13,91.3,76.7,7.67,0.72,-14.6
01:02:20,4.5540,1.9983,6.5846,1.4724,96.67,96.72,773.0,9.1,91.0,77.3,7.73,0.71,-13.7
01:02:30,4.5430,1.9992,6.6098,1.4780,97.04,97.09,771.0,9.08,90.8,77.1,7.71,0.71,-13.7
01:02:40,4.5330,1.9995,6.6350,1.4835,97.41,97.45,771.0,9.06,90.6,77.1,7.71,0.71,-13.5
01:02:50,4.5260,1.9995,6.6601,1.4891,97.78,97.82,773.0,9.05,90.5,77.3,7.73,0.71,-13.2
01:03:00,4.5210,1.9995,6.6852,1.4947,98.15,98.18,772.0,9.04,90.4,77.2,7.72,0.71,-13.2
01:03:10,4.5220,1.9985,6.7103,1.5002,98.52,98.54,771.0,9.04,90.4,77.1,7.71,0.71,-13.3
01:03:20,4.5410,1.9984,6.7356,1.5058,98.89,98.91,774.0,9.07,90.7,77.4,7.74,0.71,-13.3
01:03:30,4.5350,1.9987,6.7607,1.5113,99.26,99.27,773.0,9.06,90.6,77.3,7.73,0.71,-13.3
01:03:40,4.5280,1.9993,6.7859,1.5169,99.63,99.64,768.0,9.05,90.5,76.8,7.68,0.71,-13.7
01:03:50,4.6400,1.9697,6.8113,1.5223,100.00,100.00,772.0,9.14,91.4,77.2,7.72,0.72,-14.2
01:04:00,5.2280,0.0098,6.8114,1.5224,100.00,100.00,777.0,0.05,0.5,77.7,7.77,0.0,77.2
01:04:10,5.1900,0.1657,6.8138,1.5228,100.04,100.03,777.0,0.86,8.6,77.7,7.77,0.07,69.1