File: output/2/iclever-1.csv
Time,Voltage(V),Current(A),Energy(Wh),Capacity(Ah),Energy Proportion(%),Capacity Proportion(%),Irradiance (Wh/m2),Irradiance/100
00:00:00,4.7810,2.0000,0.0266,0.0056,1.37,1.37,762,7.62
00:00:10,4.7930,2.0001,0.0532,0.0111,2.75,2.74,763,7.63
00:00:20,4.7890,1.9998,0.0798,0.0167,4.12,4.11,763,7.63
00:00:30,4.7880,1.9996,0.1064,0.0222,5.50,5.49,764,7.64
00:00:40,4.7880,1.9993,0.1330,0.0278,6.87,6.86,765,7.65
00:00:50,4.7870,1.9938,0.1595,0.0333,8.24,8.22,763,7.63
00:01:00,4.7860,1.9986,0.1861,0.0389,9.62,9.60,760,7.6
00:01:10,4.7860,1.9981,0.2126,0.0444,10.99,10.97,763,7.63
00:01:20,4.7870,1.9912,0.2391,0.0499,12.36,12.33,759,7.59
00:01:30,4.7870,1.9987,0.2657,0.0555,13.73,13.70,757,7.57
00:01:40,4.7860,1.9988,0.2923,0.0611,15.10,15.07,761,7.61
00:01:50,4.7870,1.9983,0.3188,0.0666,16.48,16.44,759,7.59
00:02:00,4.7870,1.9984,0.3454,0.0722,17.85,17.81,763,7.63
00:02:10,4.7860,1.9977,0.3720,0.0777,19.22,19.18,762,7.62
00:02:20,4.7860,1.9979,0.3985,0.0833,20.60,20.55,762,7.62
00:02:30,4.7860,1.9943,0.4250,0.0888,21.97,21.92,762,7.62
00:02:40,4.7850,1.9978,0.4516,0.0943,23.34,23.29,765,7.65
00:02:50,4.7830,1.9983,0.4781,0.0999,24.71,24.66,760,7.6
00:03:00,4.7840,1.9980,0.5047,0.1054,26.08,26.03,762,7.62
00:03:10,4.7830,1.9981,0.5312,0.1110,27.46,27.40,761,7.61
00:03:20,4.7820,1.9985,0.5578,0.1165,28.83,28.77,762,7.62
00:03:30,4.7810,1.9992,0.5843,0.1221,30.20,30.14,760,7.6
00:03:40,4.7800,1.9984,0.6109,0.1276,31.57,31.51,767,7.67
00:03:50,4.7800,1.9983,0.6374,0.1332,32.94,32.89,766,7.66
00:04:00,4.7780,1.9983,0.6639,0.1387,34.31,34.26,765,7.65
00:04:10,4.7780,1.9983,0.6904,0.1443,35.68,35.63,770,7.7
00:04:20,4.7770,1.9972,0.7169,0.1498,37.05,37.00,767,7.67
00:04:30,4.7770,1.9983,0.7435,0.1554,38.42,38.37,768,7.68
00:04:40,4.7770,1.9973,0.7700,0.1609,39.79,39.74,769,7.69
00:04:50,4.7780,1.9986,0.7965,0.1665,41.16,41.11,768,7.68
00:05:00,4.7770,1.9983,0.8230,0.1720,42.53,42.48,772,7.72
00:05:10,4.7760,1.9938,0.8495,0.1776,43.90,43.84,769,7.69
00:05:20,4.7750,1.9980,0.8760,0.1831,45.27,45.21,772,7.72
00:05:30,4.7740,1.9980,0.9025,0.1887,46.64,46.59,768,7.68
00:05:40,4.7740,1.9980,0.9289,0.1942,48.01,47.96,769,7.69
00:05:50,4.7740,1.9976,0.9554,0.1998,49.38,49.33,769,7.69
00:06:00,4.7740,1.9977,0.9819,0.2053,50.75,50.70,770,7.7
00:06:10,4.7740,1.9981,1.0084,0.2109,52.12,52.07,771,7.71
00:06:20,4.7730,1.9973,1.0349,0.2164,53.49,53.44,769,7.69
00:06:30,4.7720,1.9981,1.0614,0.2220,54.86,54.81,767,7.67
00:06:40,4.7730,1.9949,1.0878,0.2275,56.22,56.17,769,7.69
00:06:50,4.7730,1.9981,1.1143,0.2331,57.59,57.54,767,7.67
00:07:00,4.7730,1.9981,1.1408,0.2386,58.96,58.91,766,7.66
00:07:10,4.7740,1.9979,1.1673,0.2442,60.33,60.28,770,7.7
00:07:20,4.7750,1.9980,1.1938,0.2497,61.70,61.66,774,7.74
00:07:30,4.7740,1.9974,1.2203,0.2553,63.07,63.02,764,7.64
00:07:40,4.7740,1.9971,1.2468,0.2608,64.44,64.39,770,7.7
00:07:50,4.7740,1.9892,1.2732,0.2663,65.80,65.76,768,7.68
00:08:00,4.7720,1.9986,1.2997,0.2719,67.17,67.13,770,7.7
00:08:10,4.7720,1.9981,1.3261,0.2774,68.54,68.50,767,7.67
00:08:20,4.7720,1.9975,1.3526,0.2830,69.91,69.87,768,7.68
00:08:30,4.7710,1.9979,1.3791,0.2885,71.28,71.24,769,7.69
00:08:40,4.7710,1.9979,1.4056,0.2941,72.64,72.61,769,7.69
00:08:50,4.7710,1.9974,1.4321,0.2996,74.01,73.98,768,7.68
00:09:00,4.7720,1.9979,1.4585,0.3052,75.38,75.35,772,7.72
00:09:10,4.7720,1.9977,1.4850,0.3107,76.75,76.72,770,7.7
00:09:20,4.7720,1.9979,1.5115,0.3163,78.12,78.09,766,7.66
00:09:30,4.7720,1.9979,1.5380,0.3218,79.49,79.46,770,7.7
00:09:40,4.7720,1.9974,1.5645,0.3274,80.86,80.83,771,7.71
00:09:50,4.7730,1.9980,1.5910,0.3329,82.22,82.20,770,7.7
00:10:00,4.7720,1.9979,1.6174,0.3385,83.59,83.57,769,7.69
00:10:10,4.7740,1.9972,1.6439,0.3440,84.96,84.94,769,7.69
00:10:20,4.7710,1.9970,1.6704,0.3496,86.33,86.31,771,7.71
00:10:30,4.7710,1.9971,1.6969,0.3551,87.70,87.68,773,7.73
00:10:40,4.7700,1.9968,1.7233,0.3607,89.06,89.05,772,7.72
00:10:50,4.7700,1.9963,1.7498,0.3662,90.43,90.42,774,7.74
00:11:00,4.7700,1.9974,1.7762,0.3718,91.80,91.79,771,7.71
00:11:10,4.7700,1.9974,1.8027,0.3773,93.17,93.16,772,7.72
00:11:20,4.7710,1.9977,1.8292,0.3829,94.54,94.53,774,7.74
00:11:30,4.7710,1.9946,1.8556,0.3884,95.90,95.90,775,7.75
00:11:40,4.7700,1.9922,1.8820,0.3939,97.27,97.26,775,7.75
00:11:50,4.7700,1.9965,1.9085,0.3995,98.63,98.63,781,7.81
00:12:00,4.7690,1.9960,1.9349,0.4050,100.00,100.00,784,7.84
00:12:10,0.1110,0.0000,1.9349,0.4050,100.00,100.00,786,7.86
00:12:20,0.1030,0.0000,1.9349,0.4050,100.00,100.00,780,7.8
00:12:30,0.1010,0.0000,1.9349,0.4050,100.00,100.00,710,7.1
00:12:40,0.0000,0.0000,1.9349,0.4050,100.00,100.00,562,5.62
00:12:50,0.0000,0.0000,1.9349,0.4050,100.00,100.00,196.0,1.96
00:13:00,0.0000,0.0000,1.9349,0.4050,100.00,100.00,129.6,1.296
00:13:10,0.0000,0.0000,1.9349,0.4050,100.00,100.00,110.5,1.105
00:13:20,0.0000,0.0000,1.9349,0.4050,100.00,100.00,181.6,1.816
00:13:30,0.0000,0.0000,1.9349,0.4050,100.00,100.00,563,5.63
00:13:40,0.0000,0.0000,1.9349,0.4050,100.00,100.00,596,5.96
00:13:50,0.0000,0.0000,1.9349,0.4050,100.00,100.00,510,5.1
00:14:00,0.0000,0.0000,1.9349,0.4050,100.00,100.00,768,7.68
00:14:10,0.0000,0.0000,1.9349,0.4050,100.00,100.00,809,8.09
00:14:20,0.0000,0.0000,1.9349,0.4050,100.00,100.00,810,8.1
00:14:30,0.0000,0.0000,1.9349,0.4050,100.00,100.00,809,8.09
00:14:40,0.0000,0.0000,1.9349,0.4050,100.00,100.00,807,8.07
00:14:50,0.0000,0.0000,1.9349,0.4050,100.00,100.00,815,8.15
00:15:00,0.0000,0.0000,1.9349,0.4050,100.00,100.00,801,8.01
00:15:10,0.0000,0.0000,1.9349,0.4050,100.00,100.00,815,8.15
00:15:20,0.0000,0.0000,1.9349,0.4050,100.00,100.00,803,8.03
00:15:30,0.0000,0.0000,1.9349,0.4050,100.00,100.00,810,8.1
00:15:40,0.0000,0.0000,1.9349,0.4050,100.00,100.00,808,8.08
00:15:50,0.0000,0.0000,1.9349,0.4050,100.00,100.00,803,8.03
00:16:00,0.0000,0.0000,1.9349,0.4050,100.00,100.00,795,7.95
00:16:10,0.0000,0.0000,1.9349,0.4050,100.00,100.00,711,7.11
00:16:20,0.0000,0.0000,1.9349,0.4050,100.00,100.00,783,7.83
00:16:30,0.0000,0.0000,1.9349,0.4050,100.00,100.00,824,8.24
00:16:40,0.0000,0.0000,1.9349,0.4050,100.00,100.00,773,7.73
00:16:50,0.0000,0.0000,1.9349,0.4050,100.00,100.00,818,8.18
00:17:00,0.0000,0.0000,1.9349,0.4050,100.00,100.00,855,8.55
00:17:10,0.0000,0.0000,1.9349,0.4050,100.00,100.00,852,8.52
00:17:20,0.0000,0.0000,1.9349,0.4050,100.00,100.00,848,8.48
00:17:30,0.0000,0.0000,1.9349,0.4050,100.00,100.00,676,6.76
00:17:40,0.0000,0.0000,1.9349,0.4050,100.00,100.00,579,5.79
00:17:50,0.0000,0.0000,1.9349,0.4050,100.00,100.00,840,8.4
00:18:00,0.0000,0.0000,1.9349,0.4050,100.00,100.00,809,8.09
00:18:10,0.0000,0.0000,1.9349,0.4050,100.00,100.00,852,8.52
00:18:20,0.0000,0.0000,1.9349,0.4050,100.00,100.00,842,8.42
00:18:30,0.0000,0.0000,1.9349,0.4050,100.00,100.00,713,7.13
00:18:40,0.0000,0.0000,1.9349,0.4050,100.00,100.00,593,5.93
00:18:50,0.0000,0.0000,1.9349,0.4050,100.00,100.00,591,5.91
00:19:00,0.0000,0.0000,1.9349,0.4050,100.00,100.00,301,3.01
00:19:10,0.0000,0.0000,1.9349,0.4050,100.00,100.00,202,2.02
00:19:20,0.0000,0.0000,1.9349,0.4050,100.00,100.00,301,3.01
00:19:30,0.0000,0.0000,1.9349,0.4050,100.00,100.00,581,5.81
00:19:40,0.0000,0.0000,1.9349,0.4050,100.00,100.00,508,5.08
00:19:50,0.0000,0.0000,1.9349,0.4050,100.00,100.00,706,7.06
00:20:00,0.0000,0.0000,1.9349,0.4050,100.00,100.00,823,8.23
00:20:10,0.0000,0.0000,1.9349,0.4050,100.00,100.00,817,8.17
00:20:20,0.0000,0.0000,1.9349,0.4050,100.00,100.00,815,8.15
00:20:30,0.0000,0.0000,1.9349,0.4050,100.00,100.00,812,8.12
00:20:40,0.0000,0.0000,1.9349,0.4050,100.00,100.00,809,8.09
00:20:50,0.0000,0.0000,1.9349,0.4050,100.00,100.00,807,8.07
00:21:00,0.0000,0.0000,1.9349,0.4050,100.00,100.00,808,8.08
00:21:10,0.0000,0.0000,1.9349,0.4050,100.00,100.00,810,8.1
00:21:20,0.0000,0.0000,1.9349,0.4050,100.00,100.00,798,7.98
00:21:30,0.0000,0.0000,1.9349,0.4050,100.00,100.00,801,8.01
00:21:40,0.0000,0.0000,1.9349,0.4050,100.00,100.00,801,8.01
00:21:50,0.0000,0.0000,1.9349,0.4050,100.00,100.00,800,8.0
00:22:00,0.0000,0.0000,1.9349,0.4050,100.00,100.00,803,8.03
00:22:10,0.0000,0.0000,1.9349,0.4050,100.00,100.00,800,8.0
00:22:20,0.0000,0.0000,1.9349,0.4050,100.00,100.00,797,7.97
00:22:30,0.0000,0.0000,1.9349,0.4050,100.00,100.00,795,7.95
00:22:40,0.0000,0.0000,1.9349,0.4050,100.00,100.00,797,7.97
00:22:50,0.0000,0.0000,1.9349,0.4050,100.00,100.00,795,7.95
00:23:00,0.0000,0.0000,1.9349,0.4050,100.00,100.00,797,7.97
00:23:10,0.0000,0.0000,1.9349,0.4050,100.00,100.00,797,7.97
00:23:20,0.0000,0.0000,1.9349,0.4050,100.00,100.00,798,7.98
00:23:30,0.0000,0.0000,1.9349,0.4050,100.00,100.00,798,7.98
00:23:40,0.0000,0.0000,1.9349,0.4050,100.00,100.00,800,8.0
00:23:50,0.0000,0.0000,1.9349,0.4050,100.00,100.00,798,7.98
00:24:00,0.0000,0.0000,1.9349,0.4050,100.00,100.00,796,7.96
00:24:10,0.0000,0.0000,1.9349,0.4050,100.00,100.00,797,7.97
00:24:20,0.0000,0.0000,1.9349,0.4050,100.00,100.00,796,7.96
00:24:30,0.0000,0.0000,1.9349,0.4050,100.00,100.00,796,7.96
00:24:40,0.0000,0.0000,1.9349,0.4050,100.00,100.00,790,7.9
00:24:50,0.0000,0.0000,1.9349,0.4050,100.00,100.00,793,7.93
00:25:00,0.0000,0.0000,1.9349,0.4050,100.00,100.00,800,8.0
00:25:10,0.0000,0.0000,1.9349,0.4050,100.00,100.00,800,8.0
00:25:20,0.0000,0.0000,1.9349,0.4050,100.00,100.00,806,8.06
00:25:30,0.0000,0.0000,1.9349,0.4050,100.00,100.00,809,8.09
00:25:40,0.0000,0.0000,1.9349,0.4050,100.00,100.00,804,8.04
00:25:50,0.0000,0.0000,1.9349,0.4050,100.00,100.00,804,8.04
00:26:00,0.0000,0.0000,1.9349,0.4050,100.00,100.00,807,8.07
00:26:10,0.0000,0.0000,1.9349,0.4050,100.00,100.00,806,8.06
00:26:20,0.0000,0.0000,1.9349,0.4050,100.00,100.00,805,8.05
00:26:30,0.0000,0.0000,1.9349,0.4050,100.00,100.00,807,8.07
00:26:40,0.0000,0.0000,1.9349,0.4050,100.00,100.00,813,8.13
00:26:50,0.0000,0.0000,1.9349,0.4050,100.00,100.00,808,8.08
00:27:00,0.0000,0.0000,1.9349,0.4050,100.00,100.00,812,8.12
00:27:10,0.0000,0.0000,1.9349,0.4050,100.00,100.00,812,8.12
00:27:20,0.0000,0.0000,1.9349,0.4050,100.00,100.00,816,8.16
00:27:30,0.0000,0.0000,1.9349,0.4050,100.00,100.00,812,8.12
00:27:40,0.0000,0.0000,1.9349,0.4050,100.00,100.00,817,8.17
00:27:50,0.0000,0.0000,1.9349,0.4050,100.00,100.00,816,8.16
00:28:00,0.0000,0.0000,1.9349,0.4050,100.00,100.00,818,8.18
00:28:10,0.0000,0.0000,1.9349,0.4050,100.00,100.00,820,8.2
00:28:20,0.0000,0.0000,1.9349,0.4050,100.00,100.00,819,8.19
00:28:30,0.0000,0.0000,1.9349,0.4050,100.00,100.00,822,8.22
00:28:40,0.0000,0.0000,1.9349,0.4050,100.00,100.00,823,8.23
00:28:50,0.0000,0.0000,1.9349,0.4050,100.00,100.00,821,8.21
00:29:00,0.0000,0.0000,1.9349,0.4050,100.00,100.00,825,8.25
00:29:10,0.0000,0.0000,1.9349,0.4050,100.00,100.00,823,8.23
00:29:20,0.0000,0.0000,1.9349,0.4050,100.00,100.00,823,8.23
00:29:30,0.0000,0.0000,1.9349,0.4050,100.00,100.00,822,8.22
00:29:40,0.0000,0.0000,1.9349,0.4050,100.00,100.00,822,8.22
00:29:50,0.0000,0.0000,1.9349,0.4050,100.00,100.00,819,8.19
00:30:00,0.0000,0.0000,1.9349,0.4050,100.00,100.00,820,8.2
00:30:10,0.0000,0.0000,1.9349,0.4050,100.00,100.00,819,8.19
00:30:20,0.0000,0.0000,1.9349,0.4050,100.00,100.00,820,8.2
00:30:30,0.0000,0.0000,1.9349,0.4050,100.00,100.00,823,8.23
00:30:40,0.0000,0.0000,1.9349,0.4050,100.00,100.00,825,8.25
00:30:50,0.0000,0.0000,1.9349,0.4050,100.00,100.00,821,8.21
00:31:00,0.0000,0.0000,1.9349,0.4050,100.00,100.00,819,8.19
00:31:10,0.0000,0.0000,1.9349,0.4050,100.00,100.00,823,8.23
00:31:20,0.0000,0.0000,1.9349,0.4050,100.00,100.00,818,8.18
00:31:30,0.0000,0.0000,1.9349,0.4050,100.00,100.00,820,8.2
00:31:40,0.0000,0.0000,1.9349,0.4050,100.00,100.00,824,8.24
00:31:50,0.0000,0.0000,1.9349,0.4050,100.00,100.00,824,8.24
00:32:00,0.0000,0.0000,1.9349,0.4050,100.00,100.00,827,8.27
00:32:10,0.0000,0.0000,1.9349,0.4050,100.00,100.00,828,8.28
00:32:20,0.0000,0.0000,1.9349,0.4050,100.00,100.00,829,8.29
00:32:30,0.0000,0.0000,1.9349,0.4050,100.00,100.00,831,8.31
00:32:40,0.0000,0.0000,1.9349,0.4050,100.00,100.00,828,8.28
00:32:50,0.0000,0.0000,1.9349,0.4050,100.00,100.00,829,8.29
00:33:00,0.0000,0.0000,1.9349,0.4050,100.00,100.00,834,8.34
00:33:10,0.0000,0.0000,1.9349,0.4050,100.00,100.00,830,8.3
00:33:20,0.0000,0.0000,1.9349,0.4050,100.00,100.00,836,8.36
00:33:30,0.0000,0.0000,1.9349,0.4050,100.00,100.00,838,8.38
00:33:40,0.0000,0.0000,1.9349,0.4050,100.00,100.00,845,8.45
00:33:50,0.0000,0.0000,1.9349,0.4050,100.00,100.00,841,8.41
00:34:00,0.0000,0.0000,1.9349,0.4050,100.00,100.00,844,8.44
00:34:10,0.0000,0.0000,1.9349,0.4050,100.00,100.00,842,8.42
00:34:20,0.0000,0.0000,1.9349,0.4050,100.00,100.00,839,8.39
00:34:30,0.0000,0.0000,1.9349,0.4050,100.00,100.00,841,8.41
00:34:40,0.0000,0.0000,1.9349,0.4050,100.00,100.00,848,8.48
00:34:50,0.0000,0.0000,1.9349,0.4050,100.00,100.00,846,8.46
00:35:00,0.0000,0.0000,1.9349,0.4050,100.00,100.00,850,8.5
00:35:10,0.0000,0.0000,1.9349,0.4050,100.00,100.00,845,8.45
00:35:20,0.0000,0.0000,1.9349,0.4050,100.00,100.00,848,8.48
00:35:30,0.0000,0.0000,1.9349,0.4050,100.00,100.00,845,8.45
00:35:40,0.0000,0.0000,1.9349,0.4050,100.00,100.00,844,8.44
00:35:50,0.0000,0.0000,1.9349,0.4050,100.00,100.00,843,8.43
00:36:00,0.0000,0.0000,1.9349,0.4050,100.00,100.00,839,8.39
00:36:10,0.0000,0.0000,1.9349,0.4050,100.00,100.00,840,8.4
00:36:20,0.0000,0.0000,1.9349,0.4050,100.00,100.00,834,8.34
00:36:30,0.0000,0.0000,1.9349,0.4050,100.00,100.00,838,8.38
00:36:40,0.0000,0.0000,1.9349,0.4050,100.00,100.00,843,8.43
00:36:50,0.0000,0.0000,1.9349,0.4050,100.00,100.00,839,8.39
00:37:00,0.0000,0.0000,1.9349,0.4050,100.00,100.00,838,8.38
00:37:10,0.0000,0.0000,1.9349,0.4050,100.00,100.00,841,8.41
00:37:20,0.0000,0.0000,1.9349,0.4050,100.00,100.00,841,8.41
00:37:30,0.0000,0.0000,1.9349,0.4050,100.00,100.00,842,8.42
00:37:40,0.0000,0.0000,1.9349,0.4050,100.00,100.00,837,8.37
00:37:50,0.0000,0.0000,1.9349,0.4050,100.00,100.00,840,8.4
00:38:00,0.0000,0.0000,1.9349,0.4050,100.00,100.00,840,8.4
00:38:10,0.0000,0.0000,1.9349,0.4050,100.00,100.00,840,8.4
00:38:20,0.0000,0.0000,1.9349,0.4050,100.00,100.00,842,8.42
00:38:30,0.0000,0.0000,1.9349,0.4050,100.00,100.00,847,8.47
00:38:40,0.0000,0.0000,1.9349,0.4050,100.00,100.00,847,8.47
00:38:50,0.0000,0.0000,1.9349,0.4050,100.00,100.00,840,8.4
00:39:00,0.0000,0.0000,1.9349,0.4050,100.00,100.00,761,7.61
00:39:10,0.0000,0.0000,1.9349,0.4050,100.00,100.00,835,8.35
00:39:20,0.0000,0.0000,1.9349,0.4050,100.00,100.00,842,8.42
00:39:30,0.0000,0.0000,1.9349,0.4050,100.00,100.00,842,8.42
00:39:40,0.0000,0.0000,1.9349,0.4050,100.00,100.00,846,8.46
00:39:50,0.0000,0.0000,1.9349,0.4050,100.00,100.00,837,8.37
00:40:00,0.0000,0.0000,1.9349,0.4050,100.00,100.00,842,8.42
00:40:10,0.0000,0.0000,1.9349,0.4050,100.00,100.00,841,8.41
00:40:20,0.0000,0.0000,1.9349,0.4050,100.00,100.00,842,8.42
00:40:30,0.0000,0.0000,1.9349,0.4050,100.00,100.00,841,8.41
00:40:40,0.0000,0.0000,1.9349,0.4050,100.00,100.00,839,8.39
00:40:50,0.0000,0.0000,1.9349,0.4050,100.00,100.00,842,8.42
00:41:00,0.0000,0.0000,1.9349,0.4050,100.00,100.00,842,8.42
00:41:10,0.0000,0.0000,1.9349,0.4050,100.00,100.00,842,8.42
00:41:20,0.0000,0.0000,1.9349,0.4050,100.00,100.00,839,8.39
00:41:30,0.0000,0.0000,1.9349,0.4050,100.00,100.00,836,8.36
00:41:40,0.0000,0.0000,1.9349,0.4050,100.00,100.00,837,8.37
00:41:50,0.0000,0.0000,1.9349,0.4050,100.00,100.00,839,8.39
00:42:00,0.0000,0.0000,1.9349,0.4050,100.00,100.00,835,8.35
00:42:10,0.0000,0.0000,1.9349,0.4050,100.00,100.00,832,8.32
00:42:20,0.0000,0.0000,1.9349,0.4050,100.00,100.00,833,8.33
00:42:30,0.0000,0.0000,1.9349,0.4050,100.00,100.00,833,8.33
00:42:40,0.0000,0.0000,1.9349,0.4050,100.00,100.00,830,8.3
00:42:50,0.0000,0.0000,1.9349,0.4050,100.00,100.00,828,8.28
00:43:00,0.0000,0.0000,1.9349,0.4050,100.00,100.00,826,8.26
00:43:10,0.0000,0.0000,1.9349,0.4050,100.00,100.00,829,8.29
00:43:20,0.0000,0.0000,1.9349,0.4050,100.00,100.00,826,8.26
00:43:30,0.0000,0.0000,1.9349,0.4050,100.00,100.00,826,8.26
00:43:40,0.0000,0.0000,1.9349,0.4050,100.00,100.00,821,8.21
00:43:50,0.0000,0.0000,1.9349,0.4050,100.00,100.00,820,8.2
00:44:00,0.0000,0.0000,1.9349,0.4050,100.00,100.00,821,8.21
00:44:10,0.0000,0.0000,1.9349,0.4050,100.00,100.00,818,8.18
00:44:20,0.0000,0.0000,1.9349,0.4050,100.00,100.00,818,8.18
00:44:30,0.0000,0.0000,1.9349,0.4050,100.00,100.00,815,8.15
00:44:40,0.0000,0.0000,1.9349,0.4050,100.00,100.00,816,8.16
00:44:50,0.0000,0.0000,1.9349,0.4050,100.00,100.00,823,8.23
00:45:00,0.0000,0.0000,1.9349,0.4050,100.00,100.00,822,8.22
00:45:10,0.0000,0.0000,1.9349,0.4050,100.00,100.00,820,8.2
00:45:20,0.0000,0.0000,1.9349,0.4050,100.00,100.00,817,8.17
00:45:30,0.0000,0.0000,1.9349,0.4050,100.00,100.00,819,8.19
00:45:40,0.0000,0.0000,1.9349,0.4050,100.00,100.00,822,8.22
00:45:50,0.0000,0.0000,1.9349,0.4050,100.00,100.00,825,8.25
00:46:00,0.0000,0.0000,1.9349,0.4050,100.00,100.00,819,8.19
00:46:10,0.0000,0.0000,1.9349,0.4050,100.00,100.00,818,8.18
00:46:20,0.0000,0.0000,1.9349,0.4050,100.00,100.00,820,8.2
00:46:30,0.0000,0.0000,1.9349,0.4050,100.00,100.00,817,8.17
00:46:40,0.0000,0.0000,1.9349,0.4050,100.00,100.00,816,8.16
00:46:50,0.0000,0.0000,1.9349,0.4050,100.00,100.00,811,8.11
00:47:00,0.0000,0.0000,1.9349,0.4050,100.00,100.00,808,8.08
00:47:10,0.0000,0.0000,1.9349,0.4050,100.00,100.00,816,8.16
00:47:20,0.0000,0.0000,1.9349,0.4050,100.00,100.00,822,8.22
00:47:30,0.0000,0.0000,1.9349,0.4050,100.00,100.00,822,8.22
00:47:40,0.0000,0.0000,1.9349,0.4050,100.00,100.00,833,8.33
00:47:50,0.0000,0.0000,1.9349,0.4050,100.00,100.00,836,8.36
00:48:00,0.0000,0.0000,1.9349,0.4050,100.00,100.00,838,8.38
00:48:10,0.0000,0.0000,1.9349,0.4050,100.00,100.00,836,8.36
00:48:20,0.0000,0.0000,1.9349,0.4050,100.00,100.00,835,8.35
00:48:30,0.0000,0.0000,1.9349,0.4050,100.00,100.00,835,8.35
00:48:40,0.0000,0.0000,1.9349,0.4050,100.00,100.00,834,8.34
00:48:50,0.0000,0.0000,1.9349,0.4050,100.00,100.00,836,8.36
00:49:00,0.0000,0.0000,1.9349,0.4050,100.00,100.00,833,8.33
00:49:10,0.0000,0.0000,1.9349,0.4050,100.00,100.00,835,8.35
00:49:20,0.0000,0.0000,1.9349,0.4050,100.00,100.00,826,8.26
00:49:30,0.0000,0.0000,1.9349,0.4050,100.00,100.00,827,8.27
00:49:40,0.0000,0.0000,1.9349,0.4050,100.00,100.00,825,8.25
00:49:50,0.0000,0.0000,1.9349,0.4050,100.00,100.00,826,8.26
00:50:00,0.0000,0.0000,1.9349,0.4050,100.00,100.00,829,8.29
00:50:10,0.0000,0.0000,1.9349,0.4050,100.00,100.00,826,8.26
00:50:20,0.0000,0.0000,1.9349,0.4050,100.00,100.00,829,8.29
00:50:30,0.0000,0.0000,1.9349,0.4050,100.00,100.00,829,8.29
00:50:40,0.0000,0.0000,1.9349,0.4050,100.00,100.00,834,8.34
00:50:50,0.0000,0.0000,1.9349,0.4050,100.00,100.00,829,8.29
00:51:00,0.0000,0.0000,1.9349,0.4050,100.00,100.00,829,8.29
00:51:10,0.0000,0.0000,1.9349,0.4050,100.00,100.00,828,8.28
00:51:20,0.0000,0.0000,1.9349,0.4050,100.00,100.00,828,8.28
00:51:30,0.0000,0.0000,1.9349,0.4050,100.00,100.00,829,8.29
00:51:40,0.0000,0.0000,1.9349,0.4050,100.00,100.00,828,8.28
00:51:50,0.0000,0.0000,1.9349,0.4050,100.00,100.00,825,8.25
00:52:00,0.0000,0.0000,1.9349,0.4050,100.00,100.00,830,8.3
00:52:10,0.0000,0.0000,1.9349,0.4050,100.00,100.00,830,8.3
00:52:20,0.0000,0.0000,1.9349,0.4050,100.00,100.00,836,8.36
00:52:30,0.0000,0.0000,1.9349,0.4050,100.00,100.00,831,8.31
00:52:40,0.0000,0.0000,1.9349,0.4050,100.00,100.00,829,8.29
00:52:50,0.0000,0.0000,1.9349,0.4050,100.00,100.00,835,8.35
00:53:00,0.0000,0.0000,1.9349,0.4050,100.00,100.00,833,8.33
00:53:10,0.0000,0.0000,1.9349,0.4050,100.00,100.00,827,8.27
00:53:20,0.0000,0.0000,1.9349,0.4050,100.00,100.00,834,8.34
00:53:30,0.0000,0.0000,1.9349,0.4050,100.00,100.00,832,8.32
00:53:40,0.0000,0.0000,1.9349,0.4050,100.00,100.00,828,8.28
00:53:50,0.0000,0.0000,1.9349,0.4050,100.00,100.00,829,8.29
00:54:00,0.0000,0.0000,1.9349,0.4050,100.00,100.00,831,8.31
00:54:10,0.0000,0.0000,1.9349,0.4050,100.00,100.00,832,8.32
00:54:20,0.0000,0.0000,1.9349,0.4050,100.00,100.00,832,8.32
00:54:30,0.0000,0.0000,1.9349,0.4050,100.00,100.00,833,8.33
00:54:40,0.0000,0.0000,1.9349,0.4050,100.00,100.00,834,8.34
00:54:50,0.0000,0.0000,1.9349,0.4050,100.00,100.00,839,8.39
00:55:00,0.0000,0.0000,1.9349,0.4050,100.00,100.00,839,8.39
00:55:10,0.0000,0.0000,1.9349,0.4050,100.00,100.00,840,8.4
00:55:20,0.0000,0.0000,1.9349,0.4050,100.00,100.00,840,8.4
00:55:30,0.0000,0.0000,1.9349,0.4050,100.00,100.00,842,8.42
00:55:40,0.0000,0.0000,1.9349,0.4050,100.00,100.00,841,8.41
00:55:50,0.0000,0.0000,1.9349,0.4050,100.00,100.00,838,8.38
00:56:00,0.0000,0.0000,1.9349,0.4050,100.00,100.00,839,8.39
00:56:10,0.0000,0.0000,1.9349,0.4050,100.00,100.00,837,8.37
00:56:20,0.0000,0.0000,1.9349,0.4050,100.00,100.00,838,8.38
00:56:30,0.0000,0.0000,1.9349,0.4050,100.00,100.00,834,8.34
00:56:40,0.0000,0.0000,1.9349,0.4050,100.00,100.00,835,8.35
00:56:50,0.0000,0.0000,1.9349,0.4050,100.00,100.00,836,8.36
00:57:00,0.0000,0.0000,1.9349,0.4050,100.00,100.00,833,8.33
00:57:10,0.0000,0.0000,1.9349,0.4050,100.00,100.00,833,8.33
00:57:20,0.0000,0.0000,1.9349,0.4050,100.00,100.00,832,8.32
00:57:30,0.0000,0.0000,1.9349,0.4050,100.00,100.00,833,8.33
00:57:40,0.0000,0.0000,1.9349,0.4050,100.00,100.00,828,8.28
00:57:50,0.0000,0.0000,1.9349,0.4050,100.00,100.00,834,8.34
00:58:00,0.0000,0.0000,1.9349,0.4050,100.00,100.00,830,8.3
00:58:10,0.0000,0.0000,1.9349,0.4050,100.00,100.00,828,8.28
00:58:20,0.0000,0.0000,1.9349,0.4050,100.00,100.00,826,8.26
00:58:30,0.0000,0.0000,1.9349,0.4050,100.00,100.00,830,8.3
00:58:40,0.0000,0.0000,1.9349,0.4050,100.00,100.00,828,8.28
00:58:50,0.0000,0.0000,1.9349,0.4050,100.00,100.00,829,8.29
00:59:00,0.0000,0.0000,1.9349,0.4050,100.00,100.00,827,8.27
00:59:10,0.0000,0.0000,1.9349,0.4050,100.00,100.00,828,8.28
00:59:20,0.0000,0.0000,1.9349,0.4050,100.00,100.00,824,8.24
00:59:30,0.0000,0.0000,1.9349,0.4050,100.00,100.00,829,8.29
00:59:40,0.0000,0.0000,1.9349,0.4050,100.00,100.00,827,8.27
00:59:50,0.0000,0.0000,1.9349,0.4050,100.00,100.00,832,8.32
01:00:00,0.0000,0.0000,1.9349,0.4050,100.00,100.00,834,8.34
01:00:10,0.0000,0.0000,1.9349,0.4050,100.00,100.00,834,8.34
01:00:20,0.0000,0.0000,1.9349,0.4050,100.00,100.00,833,8.33
01:00:30,0.0000,0.0000,1.9349,0.4050,100.00,100.00,836,8.36
01:00:40,0.0000,0.0000,1.9349,0.4050,100.00,100.00,838,8.38
01:00:50,0.0000,0.0000,1.9349,0.4050,100.00,100.00,832,8.32
01:01:00,0.0000,0.0000,1.9349,0.4050,100.00,100.00,833,8.33
01:01:10,0.0000,0.0000,1.9349,0.4050,100.00,100.00,832,8.32
01:01:20,0.0000,0.0000,1.9349,0.4050,100.00,100.00,833,8.33
01:01:30,0.0000,0.0000,1.9349,0.4050,100.00,100.00,835,8.35
01:01:40,0.0000,0.0000,1.9349,0.4050,100.00,100.00,832,8.32
01:01:50,0.0000,0.0000,1.9349,0.4050,100.00,100.00,835,8.35
01:02:00,0.0000,0.0000,1.9349,0.4050,100.00,100.00,833,8.33
01:02:10,0.0000,0.0000,1.9349,0.4050,100.00,100.00,833,8.33
01:02:20,0.0000,0.0000,1.9349,0.4050,100.00,100.00,835,8.35
01:02:30,0.0000,0.0000,1.9349,0.4050,100.00,100.00,837,8.37
01:02:40,0.0000,0.0000,1.9349,0.4050,100.00,100.00,834,8.34
01:02:50,0.0000,0.0000,1.9349,0.4050,100.00,100.00,833,8.33
01:03:00,0.0000,0.0000,1.9349,0.4050,100.00,100.00,831,8.31
01:03:10,0.0000,0.0000,1.9349,0.4050,100.00,100.00,834,8.34
01:03:20,0.0000,0.0000,1.9349,0.4050,100.00,100.00,834,8.34
01:03:30,0.0000,0.0000,1.9349,0.4050,100.00,100.00,833,8.33
01:03:40,0.0000,0.0000,1.9349,0.4050,100.00,100.00,837,8.37
01:03:50,0.0000,0.0000,1.9349,0.4050,100.00,100.00,834,8.34
01:04:00,0.0000,0.0000,1.9349,0.4050,100.00,100.00,784,7.84
01:04:10,0.0000,0.0000,1.9349,0.4050,100.00,100.00,806,8.06
01:04:20,0.0000,0.0000,1.9349,0.4050,100.00,100.00,852,8.52
01:04:30,0.0000,0.0000,1.9349,0.4050,100.00,100.00,848,8.48
01:04:40,0.0000,0.0000,1.9349,0.4050,100.00,100.00,843,8.43
01:04:50,0.0000,0.0000,1.9349,0.4050,100.00,100.00,866,8.66
01:05:00,0.0000,0.0000,1.9349,0.4050,100.00,100.00,642,6.42
01:05:10,0.0000,0.0000,1.9349,0.4050,100.00,100.00,196.0,1.96
01:05:20,0.0000,0.0000,1.9349,0.4050,100.00,100.00,165.3,1.653
01:05:30,0.0000,0.0000,1.9349,0.4050,100.00,100.00,204,2.04
01:05:40,0.0000,0.0000,1.9349,0.4050,100.00,100.00,416,4.16
01:05:50,0.0000,0.0000,1.9349,0.4050,100.00,100.00,305,3.05
01:06:00,0.0000,0.0000,1.9349,0.4050,100.00,100.00,291,2.91
01:06:10,0.0000,0.0000,1.9349,0.4050,100.00,100.00,257,2.57
01:06:20,0.0000,0.0000,1.9349,0.4050,100.00,100.00,224,2.24
01:06:30,0.0000,0.0000,1.9349,0.4050,100.00,100.00,427,4.27
01:06:40,0.0000,0.0000,1.9349,0.4050,100.00,100.00,872,8.72
01:06:50,0.0000,0.0000,1.9349,0.4050,100.00,100.00,873,8.73
01:07:00,0.0000,0.0000,1.9349,0.4050,100.00,100.00,874,8.74
01:07:10,0.0000,0.0000,1.9349,0.4050,100.00,100.00,874,8.74
01:07:20,0.0000,0.0000,1.9349,0.4050,100.00,100.00,868,8.68
01:07:30,0.0000,0.0000,1.9349,0.4050,100.00,100.00,863,8.63
01:07:40,0.0000,0.0000,1.9349,0.4050,100.00,100.00,865,8.65
01:07:50,0.0000,0.0000,1.9349,0.4050,100.00,100.00,861,8.61
01:08:00,0.0000,0.0000,1.9349,0.4050,100.00,100.00,861,8.61
01:08:10,0.0000,0.0000,1.9349,0.4050,100.00,100.00,859,8.59
01:08:20,0.0000,0.0000,1.9349,0.4050,100.00,100.00,858,8.58
01:08:30,0.0000,0.0000,1.9349,0.4050,100.00,100.00,865,8.65
01:08:40,0.0000,0.0000,1.9349,0.4050,100.00,100.00,866,8.66
01:08:50,0.0000,0.0000,1.9349,0.4050,100.00,100.00,872,8.72
01:09:00,0.0000,0.0000,1.9349,0.4050,100.00,100.00,877,8.77
01:09:10,0.0000,0.0000,1.9349,0.4050,100.00,100.00,879,8.79
01:09:20,0.0000,0.0000,1.9349,0.4050,100.00,100.00,879,8.79
01:09:30,0.0000,0.0000,1.9349,0.4050,100.00,100.00,880,8.8
01:09:40,0.0000,0.0000,1.9349,0.4050,100.00,100.00,883,8.83
01:09:50,0.0000,0.0000,1.9349,0.4050,100.00,100.00,891,8.91
01:10:00,0.0000,0.0000,1.9349,0.4050,100.00,100.00,900,9.0
01:10:10,0.0000,0.0000,1.9349,0.4050,100.00,100.00,886,8.86
01:10:20,0.0000,0.0000,1.9349,0.4050,100.00,100.00,638,6.38
01:10:30,0.0000,0.0000,1.9349,0.4050,100.00,100.00,744,7.44
01:10:40,0.0000,0.0000,1.9349,0.4050,100.00,100.00,198.0,1.98
01:10:50,0.0000,0.0000,1.9349,0.4050,100.00,100.00,168.7,1.687
01:11:00,0.0000,0.0000,1.9349,0.4050,100.00,100.00,166.5,1.665
01:11:10,0.0000,0.0000,1.9349,0.4050,100.00,100.00,159.7,1.597
01:11:20,0.0000,0.0000,1.9349,0.4050,100.00,100.00,162.0,1.62
01:11:30,0.0000,0.0000,1.9349,0.4050,100.00,100.00,162.7,1.627
01:11:40,0.0000,0.0000,1.9349,0.4050,100.00,100.00,191.0,1.91
01:11:50,0.0000,0.0000,1.9349,0.4050,100.00,100.00,555,5.55
01:12:00,0.0000,0.0000,1.9349,0.4050,100.00,100.00,837,8.37
01:12:10,0.0000,0.0000,1.9349,0.4050,100.00,100.00,883,8.83
01:12:20,0.0000,0.0000,1.9349,0.4050,100.00,100.00,879,8.79
01:12:30,0.0000,0.0000,1.9349,0.4050,100.00,100.00,851,8.51
01:12:40,0.0000,0.0000,1.9349,0.4050,100.00,100.00,849,8.49
01:12:50,0.0000,0.0000,1.9349,0.4050,100.00,100.00,886,8.86
01:13:00,0.0000,0.0000,1.9349,0.4050,100.00,100.00,884,8.84
01:13:10,0.0000,0.0000,1.9349,0.4050,100.00,100.00,889,8.89
01:13:20,0.0000,0.0000,1.9349,0.4050,100.00,100.00,886,8.86
01:13:30,0.0000,0.0000,1.9349,0.4050,100.00,100.00,886,8.86
01:13:40,0.0000,0.0000,1.9349,0.4050,100.00,100.00,880,8.8
01:13:50,0.0000,0.0000,1.9349,0.4050,100.00,100.00,883,8.83
01:14:00,0.0000,0.0000,1.9349,0.4050,100.00,100.00,882,8.82
01:14:10,0.0000,0.0000,1.9349,0.4050,100.00,100.00,881,8.81
01:14:20,0.0000,0.0000,1.9349,0.4050,100.00,100.00,883,8.83
01:14:30,0.0000,0.0000,1.9349,0.4050,100.00,100.00,874,8.74
01:14:40,0.0000,0.0000,1.9349,0.4050,100.00,100.00,876,8.76
01:14:50,0.0000,0.0000,1.9349,0.4050,100.00,100.00,875,8.75
01:15:00,0.0000,0.0000,1.9349,0.4050,100.00,100.00,874,8.74
01:15:10,0.0000,0.0000,1.9349,0.4050,100.00,100.00,870,8.7
01:15:20,0.0000,0.0000,1.9349,0.4050,100.00,100.00,865,8.65
01:15:30,0.0000,0.0000,1.9349,0.4050,100.00,100.00,873,8.73
01:15:40,0.0000,0.0000,1.9349,0.4050,100.00,100.00,867,8.67
01:15:50,0.0000,0.0000,1.9349,0.4050,100.00,100.00,871,8.71
01:16:00,0.0000,0.0000,1.9349,0.4050,100.00,100.00,867,8.67
01:16:10,0.0000,0.0000,1.9349,0.4050,100.00,100.00,874,8.74
01:16:20,0.0000,0.0000,1.9349,0.4050,100.00,100.00,880,8.8
01:16:30,0.0000,0.0000,1.9349,0.4050,100.00,100.00,879,8.79
01:16:40,0.0000,0.0000,1.9349,0.4050,100.00,100.00,877,8.77
01:16:50,0.0000,0.0000,1.9349,0.4050,100.00,100.00,878,8.78
01:17:00,0.0000,0.0000,1.9349,0.4050,100.00,100.00,874,8.74
01:17:10,0.0000,0.0000,1.9349,0.4050,100.00,100.00,871,8.71
01:17:20,0.0000,0.0000,1.9349,0.4050,100.00,100.00,873,8.73
01:17:30,0.0000,0.0000,1.9349,0.4050,100.00,100.00,871,8.71
01:17:40,0.0000,0.0000,1.9349,0.4050,100.00,100.00,867,8.67
01:17:50,0.0000,0.0000,1.9349,0.4050,100.00,100.00,863,8.63
01:18:00,0.0000,0.0000,1.9349,0.4050,100.00,100.00,861,8.61
01:18:10,0.0000,0.0000,1.9349,0.4050,100.00,100.00,861,8.61
01:18:20,0.0000,0.0000,1.9349,0.4050,100.00,100.00,856,8.56
01:18:30,0.0000,0.0000,1.9349,0.4050,100.00,100.00,851,8.51
01:18:40,0.0000,0.0000,1.9349,0.4050,100.00,100.00,849,8.49
01:18:50,0.0000,0.0000,1.9349,0.4050,100.00,100.00,847,8.47
01:19:00,0.0000,0.0000,1.9349,0.4050,100.00,100.00,846,8.46
01:19:10,0.0000,0.0000,1.9349,0.4050,100.00,100.00,842,8.42
01:19:20,0.0000,0.0000,1.9349,0.4050,100.00,100.00,838,8.38
01:19:30,0.0000,0.0000,1.9349,0.4050,100.00,100.00,841,8.41
01:19:40,0.0000,0.0000,1.9349,0.4050,100.00,100.00,839,8.39
01:19:50,0.0000,0.0000,1.9349,0.4050,100.00,100.00,842,8.42
01:20:00,0.0000,0.0000,1.9349,0.4050,100.00,100.00,846,8.46
01:20:10,0.0000,0.0000,1.9349,0.4050,100.00,100.00,843,8.43
01:20:20,0.0000,0.0000,1.9349,0.4050,100.00,100.00,841,8.41
01:20:30,0.0000,0.0000,1.9349,0.4050,100.00,100.00,845,8.45
01:20:40,0.0000,0.0000,1.9349,0.4050,100.00,100.00,844,8.44
01:20:50,0.0000,0.0000,1.9349,0.4050,100.00,100.00,844,8.44
01:21:00,0.0000,0.0000,1.9349,0.4050,100.00,100.00,840,8.4
01:21:10,0.0000,0.0000,1.9349,0.4050,100.00,100.00,840,8.4
01:21:20,0.0000,0.0000,1.9349,0.4050,100.00,100.00,838,8.38
01:21:30,0.0000,0.0000,1.9349,0.4050,100.00,100.00,840,8.4
01:21:40,0.0000,0.0000,1.9349,0.4050,100.00,100.00,843,8.43
01:21:50,0.0000,0.0000,1.9349,0.4050,100.00,100.00,840,8.4
01:22:00,0.0000,0.0000,1.9349,0.4050,100.00,100.00,840,8.4
01:22:10,0.0000,0.0000,1.9349,0.4050,100.00,100.00,844,8.44
01:22:20,0.0000,0.0000,1.9349,0.4050,100.00,100.00,850,8.5
01:22:30,0.0000,0.0000,1.9349,0.4050,100.00,100.00,855,8.55
01:22:40,0.0000,0.0000,1.9349,0.4050,100.00,100.00,854,8.54
01:22:50,0.0000,0.0000,1.9349,0.4050,100.00,100.00,842,8.42
01:23:00,0.0000,0.0000,1.9349,0.4050,100.00,100.00,846,8.46
01:23:10,0.0000,0.0000,1.9349,0.4050,100.00,100.00,844,8.44
01:23:20,0.0000,0.0000,1.9349,0.4050,100.00,100.00,850,8.5
01:23:30,0.0000,0.0000,1.9349,0.4050,100.00,100.00,848,8.48
01:23:40,0.0000,0.0000,1.9349,0.4050,100.00,100.00,843,8.43
01:23:50,0.0000,0.0000,1.9349,0.4050,100.00,100.00,837,8.37
01:24:00,0.0000,0.0000,1.9349,0.4050,100.00,100.00,845,8.45
01:24:10,0.0000,0.0000,1.9349,0.4050,100.00,100.00,850,8.5
01:24:20,0.0000,0.0000,1.9349,0.4050,100.00,100.00,852,8.52
01:24:30,0.0000,0.0000,1.9349,0.4050,100.00,100.00,861,8.61
01:24:40,0.0000,0.0000,1.9349,0.4050,100.00,100.00,863,8.63
01:24:50,0.0000,0.0000,1.9349,0.4050,100.00,100.00,857,8.57
01:25:00,0.0000,0.0000,1.9349,0.4050,100.00,100.00,851,8.51
01:25:10,0.0000,0.0000,1.9349,0.4050,100.00,100.00,820,8.2
01:25:20,0.0000,0.0000,1.9349,0.4050,100.00,100.00,855,8.55
01:25:30,0.0000,0.0000,1.9349,0.4050,100.00,100.00,856,8.56
01:25:40,0.0000,0.0000,1.9349,0.4050,100.00,100.00,859,8.59
01:25:50,0.0000,0.0000,1.9349,0.4050,100.00,100.00,855,8.55
01:26:00,0.0000,0.0000,1.9349,0.4050,100.00,100.00,859,8.59
01:26:10,0.0000,0.0000,1.9349,0.4050,100.00,100.00,858,8.58
01:26:20,0.0000,0.0000,1.9349,0.4050,100.00,100.00,856,8.56
01:26:30,0.0000,0.0000,1.9349,0.4050,100.00,100.00,864,8.64
01:26:40,0.0000,0.0000,1.9349,0.4050,100.00,100.00,865,8.65
01:26:50,0.0000,0.0000,1.9349,0.4050,100.00,100.00,864,8.64
01:27:00,0.0000,0.0000,1.9349,0.4050,100.00,100.00,870,8.7
01:27:10,0.0000,0.0000,1.9349,0.4050,100.00,100.00,840,8.4
01:27:20,0.0000,0.0000,1.9349,0.4050,100.00,100.00,639,6.39
01:27:30,0.0000,0.0000,1.9349,0.4050,100.00,100.00,838,8.38
01:27:40,0.0000,0.0000,1.9349,0.4050,100.00,100.00,804,8.04
01:27:50,0.0000,0.0000,1.9349,0.4050,100.00,100.00,771,7.71
01:28:00,0.0000,0.0000,1.9349,0.4050,100.00,100.00,813,8.13
01:28:10,0.0000,0.0000,1.9349,0.4050,100.00,100.00,799,7.99
01:28:20,0.0000,0.0000,1.9349,0.4050,100.00,100.00,856,8.56
01:28:30,0.0000,0.0000,1.9349,0.4050,100.00,100.00,848,8.48
01:28:40,0.0000,0.0000,1.9349,0.4050,100.00,100.00,862,8.62
01:28:50,0.0000,0.0000,1.9349,0.4050,100.00,100.00,863,8.63
01:29:00,0.0000,0.0000,1.9349,0.4050,100.00,100.00,864,8.64
01:29:10,0.0000,0.0000,1.9349,0.4050,100.00,100.00,863,8.63
01:29:20,0.0000,0.0000,1.9349,0.4050,100.00,100.00,860,8.6
01:29:30,0.0000,0.0000,1.9349,0.4050,100.00,100.00,860,8.6
01:29:40,0.0000,0.0000,1.9349,0.4050,100.00,100.00,865,8.65
01:29:50,0.0000,0.0000,1.9349,0.4050,100.00,100.00,863,8.63
01:30:00,0.0000,0.0000,1.9349,0.4050,100.00,100.00,866,8.66
01:30:10,0.0000,0.0000,1.9349,0.4050,100.00,100.00,863,8.63
01:30:20,0.0000,0.0000,1.9349,0.4050,100.00,100.00,865,8.65
01:30:30,0.0000,0.0000,1.9349,0.4050,100.00,100.00,870,8.7
01:30:40,0.0000,0.0000,1.9349,0.4050,100.00,100.00,869,8.69
01:30:50,0.0000,0.0000,1.9349,0.4050,100.00,100.00,872,8.72
01:31:00,0.0000,0.0000,1.9349,0.4050,100.00,100.00,868,8.68
01:31:10,0.0000,0.0000,1.9349,0.4050,100.00,100.00,865,8.65
01:31:20,0.0000,0.0000,1.9349,0.4050,100.00,100.00,862,8.62
01:31:30,0.0000,0.0000,1.9349,0.4050,100.00,100.00,862,8.62
01:31:40,0.0000,0.0000,1.9349,0.4050,100.00,100.00,857,8.57
01:31:50,0.0000,0.0000,1.9349,0.4050,100.00,100.00,857,8.57
01:32:00,0.0000,0.0000,1.9349,0.4050,100.00,100.00,856,8.56
01:32:10,0.0000,0.0000,1.9349,0.4050,100.00,100.00,856,8.56
01:32:20,0.0000,0.0000,1.9349,0.4050,100.00,100.00,856,8.56
01:32:30,0.0000,0.0000,1.9349,0.4050,100.00,100.00,854,8.54
01:32:40,0.0000,0.0000,1.9349,0.4050,100.00,100.00,854,8.54
01:32:50,0.0000,0.0000,1.9349,0.4050,100.00,100.00,854,8.54
01:33:00,0.0000,0.0000,1.9349,0.4050,100.00,100.00,850,8.5
01:33:10,0.0000,0.0000,1.9349,0.4050,100.00,100.00,849,8.49
01:33:20,0.0000,0.0000,1.9349,0.4050,100.00,100.00,853,8.53
01:33:30,0.0000,0.0000,1.9349,0.4050,100.00,100.00,856,8.56
01:33:40,0.0000,0.0000,1.9349,0.4050,100.00,100.00,857,8.57
01:33:50,0.0000,0.0000,1.9349,0.4050,100.00,100.00,859,8.59
01:34:00,0.0000,0.0000,1.9349,0.4050,100.00,100.00,854,8.54
01:34:10,0.0000,0.0000,1.9349,0.4050,100.00,100.00,854,8.54
01:34:20,0.0000,0.0000,1.9349,0.4050,100.00,100.00,850,8.5
01:34:30,0.0000,0.0000,1.9349,0.4050,100.00,100.00,853,8.53
01:34:40,0.0000,0.0000,1.9349,0.4050,100.00,100.00,856,8.56
01:34:50,0.0000,0.0000,1.9349,0.4050,100.00,100.00,861,8.61
01:35:00,0.0000,0.0000,1.9349,0.4050,100.00,100.00,857,8.57