File: output/2/x-dragon-1.csv
Time,Voltage(V),Current(A),Energy(Wh),Capacity(Ah),Energy Proportion(%),Capacity Proportion(%),Irradiance (Wh/m2),Irradiance/100
00:00:00,3.7760,1.8898,0.0198,0.0052,0.34,0.32,189.0,1.89
00:00:10,3.7940,1.8942,0.0398,0.0105,0.68,0.63,184.0,1.84
00:00:20,3.7640,1.8866,0.0595,0.0158,1.02,0.95,845,8.45
00:00:30,3.7790,1.8886,0.0793,0.0210,1.35,1.27,858,8.58
00:00:40,3.7860,1.8943,0.0993,0.0263,1.70,1.59,857,8.57
00:00:50,3.7380,1.8751,0.1187,0.0315,2.03,1.90,860,8.6
00:01:00,5.3230,0.0093,0.1189,0.0315,2.03,1.90,852,8.52
00:01:10,3.7790,1.8916,0.1387,0.0367,2.37,2.22,863,8.63
00:01:20,3.7820,1.8951,0.1586,0.0420,2.71,2.54,865,8.65
00:01:30,3.7970,1.9012,0.1787,0.0473,3.05,2.86,865,8.65
00:01:40,3.8030,1.9062,0.1988,0.0526,3.40,3.18,867,8.67
00:01:50,3.8080,1.9090,0.2190,0.0579,3.74,3.50,871,8.71
00:02:00,3.8250,1.9176,0.2394,0.0632,4.09,3.82,874,8.74
00:02:10,3.8330,1.9221,0.2599,0.0686,4.44,4.14,875,8.75
00:02:20,3.8340,1.9207,0.2803,0.0739,4.79,4.46,877,8.77
00:02:30,3.8340,1.9195,0.3007,0.0792,5.14,4.79,878,8.78
00:02:40,3.8330,1.9195,0.3212,0.0846,5.48,5.11,878,8.78
00:02:50,3.8260,1.9195,0.3416,0.0899,5.83,5.43,876,8.76
00:03:00,3.7640,1.8847,0.3613,0.0951,6.17,5.75,872,8.72
00:03:10,3.7270,1.8593,0.3805,0.1003,6.50,6.06,830,8.3
00:03:20,2.8520,1.2333,0.3903,0.1037,6.67,6.27,715,7.15
00:03:30,2.6740,0.4580,0.3937,0.1050,6.72,6.34,342,3.42
00:03:40,2.5250,0.4163,0.3966,0.1061,6.77,6.41,310,3.1
00:03:50,3.2460,0.8258,0.4041,0.1084,6.90,6.55,334,3.34
00:04:00,2.9500,0.7594,0.4103,0.1105,7.01,6.68,528,5.28
00:04:10,3.8360,1.9205,0.4308,0.1159,7.36,7.00,879,8.79
00:04:20,3.5250,1.7685,0.4481,0.1208,7.65,7.30,814,8.14
00:04:30,3.7830,1.8935,0.4680,0.1261,7.99,7.61,873,8.73
00:04:40,3.7080,1.8500,0.4870,0.1312,8.32,7.93,838,8.38
00:04:50,3.7750,1.8901,0.5069,0.1364,8.66,8.24,873,8.73
00:05:00,3.8300,1.9178,0.5273,0.1418,9.00,8.56,876,8.76
00:05:10,3.8740,1.9418,0.5482,0.1472,9.36,8.89,890,8.9
00:05:20,3.8800,1.9454,0.5691,0.1526,9.72,9.22,901,9.01
00:05:30,3.8660,1.9367,0.5899,0.1579,10.07,9.54,893,8.93
00:05:40,3.8560,1.9317,0.6106,0.1633,10.43,9.87,891,8.91
00:05:50,3.8440,1.9229,0.6311,0.1687,10.78,10.19,889,8.89
00:06:00,3.8240,1.9156,0.6515,0.1740,11.13,10.51,884,8.84
00:06:10,3.8390,1.9215,0.6720,0.1793,11.48,10.83,877,8.77
00:06:20,3.8890,1.9484,0.6930,0.1847,11.83,11.16,898,8.98
00:06:30,3.8830,1.9459,0.7140,0.1901,12.19,11.49,894,8.94
00:06:40,3.8760,1.9414,0.7349,0.1955,12.55,11.81,896,8.96
00:06:50,3.8620,1.9363,0.7557,0.2009,12.91,12.14,892,8.92
00:07:00,3.8570,1.9326,0.7764,0.2063,13.26,12.46,892,8.92
00:07:10,3.8680,1.9383,0.7972,0.2117,13.61,12.79,894,8.94
00:07:20,3.8420,1.9220,0.8177,0.2170,13.96,13.11,890,8.9
00:07:30,3.8610,1.9338,0.8385,0.2224,14.32,13.43,895,8.95
00:07:40,3.8160,1.9050,0.8587,0.2277,14.66,13.75,887,8.87
00:07:50,3.7070,1.8518,0.8777,0.2328,14.99,14.06,824,8.24
00:08:00,3.3310,1.6725,0.8932,0.2374,15.25,14.34,799,7.99
00:08:10,3.4980,1.7473,0.9102,0.2423,15.54,14.64,791,7.91
00:08:20,3.7190,1.8483,0.9293,0.2474,15.87,14.95,769,7.69
00:08:30,3.8790,1.9425,0.9502,0.2528,16.23,15.27,902,9.02
00:08:40,3.8920,1.9489,0.9713,0.2582,16.59,15.60,904,9.04
00:08:50,3.6860,1.8471,0.9902,0.2634,16.91,15.91,881,8.81
00:09:00,3.6790,1.8373,1.0090,0.2685,17.23,16.22,856,8.56
00:09:10,3.0600,0.6154,1.0142,0.2702,17.32,16.32,514,5.14
00:09:20,2.4670,0.3648,1.0167,0.2712,17.36,16.38,249,2.49
00:09:30,2.5680,0.4430,1.0199,0.2724,17.42,16.46,294,2.94
00:09:40,5.3200,0.0091,1.0200,0.2725,17.42,16.46,396,3.96
00:09:50,2.8930,1.4267,1.0315,0.2764,17.61,16.70,575,5.75
00:10:00,3.5530,1.7613,1.0488,0.2813,17.91,16.99,705,7.05
00:10:10,3.8780,1.9417,1.0698,0.2867,18.27,17.32,900,9.0
00:10:20,3.8710,1.9364,1.0906,0.2921,18.62,17.64,880,8.8
00:10:30,3.8670,1.9350,1.1114,0.2975,18.98,17.97,888,8.88
00:10:40,3.8970,1.9512,1.1325,0.3029,19.34,18.30,902,9.02
00:10:50,3.9270,1.9662,1.1539,0.3083,19.71,18.63,918,9.18
00:11:00,3.8930,1.9475,1.1750,0.3138,20.07,18.95,922,9.22
00:11:10,3.7840,1.8968,1.1949,0.3190,20.41,19.27,894,8.94
00:11:20,3.8960,1.9494,1.2160,0.3244,20.77,19.60,869,8.69
00:11:30,3.1810,1.6046,1.2302,0.3289,21.01,19.87,853,8.53
00:11:40,2.8960,1.4599,1.2420,0.3329,21.21,20.11,710,7.1
00:11:50,2.6030,0.3678,1.2446,0.3340,21.25,20.17,234,2.34
00:12:00,2.5120,0.3462,1.2470,0.3349,21.30,20.23,237,2.37
00:12:10,2.4590,0.3316,1.2493,0.3359,21.33,20.29,216,2.16
00:12:20,2.4220,0.3297,1.2515,0.3368,21.37,20.34,214,2.14
00:12:30,2.4150,0.3390,1.2538,0.3377,21.41,20.40,219,2.19
00:12:40,4.1310,0.8545,1.2636,0.3401,21.58,20.54,371,3.71
00:12:50,3.4330,1.6710,1.2795,0.3447,21.85,20.82,655,6.55
00:13:00,3.9450,1.9694,1.3011,0.3502,22.22,21.16,935,9.35
00:13:10,3.8910,1.9460,1.3221,0.3556,22.58,21.48,900,9.0
00:13:20,3.9230,1.9643,1.3435,0.3611,22.94,21.81,922,9.22
00:13:30,3.7960,1.9012,1.3636,0.3663,23.29,22.13,886,8.86
00:13:40,3.5200,1.7623,1.3808,0.3712,23.58,22.43,838,8.38
00:13:50,3.1720,1.5946,1.3949,0.3757,23.82,22.69,719,7.19
00:14:00,3.6240,1.8077,1.4131,0.3807,24.13,23.00,778,7.78
00:14:10,3.8580,1.9293,1.4338,0.3860,24.48,23.32,886,8.86
00:14:20,3.9020,1.9515,1.4549,0.3915,24.85,23.65,908,9.08
00:14:30,3.9020,1.9550,1.4761,0.3969,25.21,23.98,912,9.12
00:14:40,3.8780,1.9368,1.4970,0.4023,25.56,24.30,891,8.91
00:14:50,3.8790,1.9407,1.5179,0.4077,25.92,24.63,903,9.03
00:15:00,3.8860,1.9466,1.5389,0.4131,26.28,24.95,911,9.11
00:15:10,3.8910,1.9489,1.5599,0.4185,26.64,25.28,910,9.1
00:15:20,3.8860,1.9455,1.5809,0.4239,27.00,25.61,908,9.08
00:15:30,3.8840,1.9450,1.6019,0.4293,27.36,25.93,906,9.06
00:15:40,3.7300,1.8579,1.6212,0.4345,27.69,26.25,869,8.69
00:15:50,3.5210,1.7618,1.6384,0.4393,27.98,26.54,825,8.25
00:16:00,3.8860,1.9462,1.6594,0.4448,28.34,26.87,909,9.09
00:16:10,3.8910,1.9489,1.6805,0.4502,28.70,27.19,909,9.09
00:16:20,3.8740,1.9388,1.7013,0.4556,29.05,27.52,911,9.11
00:16:30,3.8560,1.9301,1.7220,0.4609,29.41,27.84,904,9.04
00:16:40,3.8500,1.9258,1.7426,0.4663,29.76,28.17,898,8.98
00:16:50,3.8540,1.9284,1.7633,0.4716,30.11,28.49,901,9.01
00:17:00,3.8690,1.9363,1.7841,0.4770,30.47,28.82,903,9.03
00:17:10,3.8830,1.9435,1.8050,0.4824,30.82,29.14,911,9.11
00:17:20,3.9080,1.9554,1.8263,0.4878,31.19,29.47,917,9.17
00:17:30,3.8190,1.9142,1.8466,0.4931,31.53,29.79,924,9.24
00:17:40,2.6350,0.6064,1.8510,0.4948,31.61,29.89,478,4.78
00:17:50,2.9450,1.5278,1.8635,0.4991,31.82,30.15,767,7.67
00:18:00,2.8970,1.4667,1.8753,0.5031,32.02,30.40,760,7.6
00:18:10,2.9190,1.5194,1.8876,0.5074,32.24,30.65,732,7.32
00:18:20,2.5780,0.3354,1.8900,0.5083,32.28,30.71,270,2.7
00:18:30,2.5200,0.3290,1.8923,0.5092,32.32,30.76,213,2.13
00:18:40,2.4670,0.3189,1.8945,0.5101,32.35,30.82,206,2.06
00:18:50,2.4310,0.3127,1.8966,0.5110,32.39,30.87,201,2.01
00:19:00,2.3980,0.3072,1.8987,0.5118,32.42,30.92,198.5,1.985
00:19:10,2.3720,0.3068,1.9007,0.5127,32.46,30.97,198.5,1.985
00:19:20,2.3580,0.3061,1.9027,0.5135,32.49,31.02,202,2.02
00:19:30,2.3450,0.3035,1.9047,0.5144,32.53,31.07,200.0,2.0
00:19:40,2.3340,0.3038,1.9066,0.5152,32.56,31.12,198.0,1.98
00:19:50,2.3250,0.3022,1.9086,0.5161,32.59,31.17,200,2.0
00:20:00,2.3180,0.3035,1.9106,0.5169,32.63,31.23,202,2.02
00:20:10,2.3110,0.3032,1.9125,0.5177,32.66,31.28,205,2.05
00:20:20,2.3040,0.2995,1.9144,0.5186,32.69,31.33,205,2.05
00:20:30,2.3040,0.3060,1.9164,0.5194,32.73,31.38,205,2.05
00:20:40,2.3210,0.3316,1.9185,0.5203,32.76,31.43,218,2.18
00:20:50,2.5620,0.5565,1.9225,0.5219,32.83,31.53,474,4.74
00:21:00,5.3110,0.0479,1.9232,0.5220,32.84,31.54,409,4.09
00:21:10,2.9300,1.5199,1.9356,0.5262,33.05,31.79,583,5.83
00:21:20,3.9760,1.9883,1.9575,0.5318,33.43,32.12,921,9.21
00:21:30,2.9540,1.5368,1.9701,0.5360,33.64,32.38,754,7.54
00:21:40,3.0550,0.6463,1.9756,0.5378,33.74,32.49,528,5.28
00:21:50,2.6310,0.4894,1.9792,0.5392,33.80,32.57,296,2.96
00:22:00,3.1600,0.8057,1.9863,0.5414,33.92,32.71,329,3.29
00:22:10,3.8810,1.9362,2.0071,0.5468,34.28,33.03,847,8.47
00:22:20,3.7480,1.8798,2.0267,0.5520,34.61,33.35,943,9.43
00:22:30,3.7360,1.8674,2.0461,0.5572,34.94,33.66,846,8.46
00:22:40,3.6060,1.7862,2.0640,0.5622,35.25,33.96,756,7.56
00:22:50,3.8870,1.9451,2.0850,0.5676,35.61,34.29,919,9.19
00:23:00,3.9450,1.9755,2.1066,0.5731,35.98,34.62,912,9.12
00:23:10,3.9440,1.9744,2.1282,0.5786,36.34,34.95,918,9.18
00:23:20,3.9340,1.9683,2.1498,0.5840,36.71,35.28,916,9.16
00:23:30,3.9300,1.9664,2.1712,0.5895,37.08,35.61,917,9.17
00:23:40,3.9320,1.9673,2.1927,0.5949,37.45,35.94,921,9.21
00:23:50,3.9220,1.9641,2.2141,0.6004,37.81,36.27,917,9.17
00:24:00,3.9160,1.9619,2.2355,0.6059,38.18,36.60,917,9.17
00:24:10,3.9020,1.9536,2.2566,0.6113,38.54,36.93,907,9.07
00:24:20,3.8860,1.9408,2.2776,0.6167,38.89,37.25,906,9.06
00:24:30,3.8630,1.9296,2.2983,0.6220,39.25,37.58,880,8.8
00:24:40,3.8370,1.9193,2.3187,0.6274,39.60,37.90,891,8.91
00:24:50,3.7960,1.8986,2.3388,0.6326,39.94,38.22,885,8.85
00:25:00,3.4950,1.7505,2.3558,0.6375,40.23,38.51,863,8.63
00:25:10,3.7650,1.8771,2.3754,0.6427,40.56,38.83,784,7.84
00:25:20,2.3250,0.3490,2.3776,0.6437,40.60,38.88,622,6.22
00:25:30,2.2650,0.2730,2.3794,0.6444,40.63,38.93,188.5,1.885
00:25:40,2.2610,0.2685,2.3810,0.6452,40.66,38.98,186.0,1.86
00:25:50,2.2590,0.2665,2.3827,0.6459,40.69,39.02,185.0,1.85
00:26:00,2.2590,0.2675,2.3844,0.6467,40.72,39.06,187.5,1.875
00:26:10,2.2570,0.2651,2.3861,0.6474,40.75,39.11,181.5,1.815
00:26:20,2.2580,0.2617,2.3877,0.6481,40.78,39.15,178.9,1.789
00:26:30,2.2590,0.2690,2.3894,0.6489,40.80,39.20,181.8,1.818
00:26:40,2.2570,0.2567,2.3910,0.6496,40.83,39.24,180.5,1.805
00:26:50,2.2540,0.2584,2.3926,0.6503,40.86,39.28,171.8,1.718
00:27:00,2.2530,0.2571,2.3942,0.6510,40.89,39.33,169.5,1.695
00:27:10,2.2530,0.2511,2.3958,0.6517,40.91,39.37,168.3,1.683
00:27:20,2.2510,0.2458,2.3973,0.6524,40.94,39.41,162.4,1.624
00:27:30,2.2500,0.2380,2.3988,0.6531,40.96,39.45,154.7,1.547
00:27:40,2.2470,0.2303,2.4003,0.6537,40.99,39.49,148.4,1.484
00:27:50,2.2460,0.2416,2.4018,0.6544,41.02,39.53,142.6,1.426
00:28:00,2.2450,0.2219,2.4031,0.6550,41.04,39.57,139.7,1.397
00:28:10,2.2450,0.2256,2.4046,0.6556,41.06,39.61,134.6,1.346
00:28:20,2.2460,0.2256,2.4060,0.6562,41.09,39.64,129.7,1.297
00:28:30,2.2460,0.2226,2.4073,0.6569,41.11,39.68,129.2,1.292
00:28:40,2.2480,0.2251,2.4088,0.6575,41.13,39.72,127.8,1.278
00:28:50,2.2490,0.2136,2.4101,0.6581,41.16,39.75,126.6,1.266
00:29:00,2.2490,0.2164,2.4114,0.6587,41.18,39.79,127.0,1.27
00:29:10,2.2500,0.2182,2.4128,0.6593,41.20,39.83,127.8,1.278
00:29:20,2.2500,0.2207,2.4142,0.6599,41.23,39.86,127.3,1.273
00:29:30,2.2520,0.2207,2.4156,0.6605,41.25,39.90,126.1,1.261
00:29:40,2.2520,0.2186,2.4169,0.6611,41.27,39.94,124.8,1.248
00:29:50,2.2530,0.2180,2.4183,0.6617,41.30,39.97,123.1,1.231
00:30:00,2.2530,0.2158,2.4196,0.6623,41.32,40.01,121.3,1.213
00:30:10,2.2530,0.2150,2.4210,0.6629,41.34,40.05,123.8,1.238
00:30:20,2.2540,0.2161,2.4223,0.6635,41.37,40.08,123.2,1.232
00:30:30,2.2550,0.2135,2.4237,0.6641,41.39,40.12,124.5,1.245
00:30:40,2.2560,0.2164,2.4250,0.6647,41.41,40.16,122.9,1.229
00:30:50,2.2580,0.2180,2.4264,0.6653,41.44,40.19,122.7,1.227
00:31:00,2.2590,0.2177,2.4278,0.6659,41.46,40.23,126.0,1.26
00:31:10,2.2610,0.2247,2.4292,0.6666,41.48,40.27,128.6,1.286
00:31:20,2.2610,0.2249,2.4306,0.6672,41.51,40.30,124.9,1.249
00:31:30,2.2630,0.2261,2.4320,0.6678,41.53,40.34,126.6,1.266
00:31:40,2.2650,0.2263,2.4334,0.6684,41.56,40.38,130.1,1.301
00:31:50,2.2650,0.2277,2.4349,0.6691,41.58,40.42,132.7,1.327
00:32:00,2.2670,0.2293,2.4363,0.6697,41.61,40.46,131.6,1.316
00:32:10,2.2690,0.2298,2.4378,0.6703,41.63,40.50,132.2,1.322
00:32:20,2.2700,0.2333,2.4392,0.6710,41.66,40.53,137.2,1.372
00:32:30,2.2720,0.2361,2.4407,0.6716,41.68,40.57,139.8,1.398
00:32:40,2.2740,0.2393,2.4422,0.6723,41.71,40.61,142.5,1.425
00:32:50,2.2770,0.2466,2.4438,0.6730,41.73,40.66,145.5,1.455
00:33:00,2.2780,0.2494,2.4454,0.6737,41.76,40.70,150.0,1.5
00:33:10,2.2790,0.2527,2.4470,0.6744,41.79,40.74,153.9,1.539
00:33:20,2.2810,0.2541,2.4486,0.6751,41.81,40.78,156.6,1.566
00:33:30,2.2820,0.2566,2.4502,0.6758,41.84,40.83,155.3,1.553
00:33:40,2.2860,0.2642,2.4519,0.6765,41.87,40.87,155.0,1.55
00:33:50,3.5860,1.7798,2.4696,0.6815,42.17,41.17,534,5.34
00:34:00,3.7930,1.8949,2.4896,0.6868,42.52,41.49,870,8.7
00:34:10,3.7870,1.8954,2.5095,0.6920,42.86,41.80,869,8.69
00:34:20,3.7860,1.8938,2.5294,0.6973,43.20,42.12,873,8.73
00:34:30,3.7830,1.8914,2.5493,0.7025,43.54,42.44,864,8.64
00:34:40,3.7700,1.8877,2.5691,0.7078,43.87,42.76,862,8.62
00:34:50,3.7650,1.8828,2.5888,0.7130,44.21,43.07,864,8.64
00:35:00,3.7680,1.8830,2.6085,0.7182,44.55,43.39,862,8.62
00:35:10,3.7640,1.8829,2.6282,0.7235,44.88,43.70,862,8.62
00:35:20,3.7650,1.8819,2.6479,0.7287,45.22,44.02,860,8.6
00:35:30,3.7640,1.8805,2.6675,0.7339,45.55,44.34,854,8.54
00:35:40,3.7550,1.8784,2.6871,0.7391,45.89,44.65,858,8.58
00:35:50,3.7550,1.8756,2.7067,0.7443,46.22,44.97,855,8.55
00:36:00,3.7540,1.8781,2.7263,0.7496,46.56,45.28,854,8.54
00:36:10,3.7490,1.8731,2.7458,0.7548,46.89,45.60,853,8.53
00:36:20,3.7420,1.8699,2.7652,0.7600,47.22,45.91,854,8.54
00:36:30,3.7410,1.8691,2.7846,0.7651,47.55,46.22,849,8.49
00:36:40,3.7370,1.8657,2.8040,0.7703,47.88,46.54,846,8.46
00:36:50,3.7350,1.8653,2.8233,0.7755,48.21,46.85,848,8.48
00:37:00,3.7290,1.8617,2.8426,0.7807,48.54,47.16,846,8.46
00:37:10,3.7200,1.8563,2.8618,0.7858,48.87,47.47,841,8.41
00:37:20,3.7170,1.8540,2.8809,0.7910,49.20,47.78,844,8.44
00:37:30,3.7090,1.8507,2.9000,0.7961,49.52,48.09,843,8.43
00:37:40,3.7050,1.8480,2.9190,0.8013,49.85,48.40,838,8.38
00:37:50,3.7000,1.8464,2.9380,0.8064,50.17,48.71,841,8.41
00:38:00,3.6980,1.8447,2.9570,0.8115,50.50,49.02,836,8.36
00:38:10,3.6970,1.8436,2.9759,0.8166,50.82,49.33,836,8.36
00:38:20,3.6930,1.8420,2.9948,0.8218,51.14,49.64,836,8.36
00:38:30,3.6910,1.8398,3.0137,0.8269,51.46,49.95,833,8.33
00:38:40,3.6880,1.8402,3.0325,0.8320,51.79,50.26,835,8.35
00:38:50,3.6830,1.8371,3.0513,0.8371,52.11,50.57,833,8.33
00:39:00,3.6860,1.8376,3.0701,0.8422,52.43,50.88,835,8.35
00:39:10,3.6800,1.8350,3.0889,0.8473,52.75,51.18,829,8.29
00:39:20,3.6700,1.8326,3.1076,0.8524,53.07,51.49,832,8.32
00:39:30,3.6660,1.8280,3.1262,0.8575,53.39,51.80,829,8.29
00:39:40,3.6590,1.8263,3.1447,0.8625,53.70,52.10,827,8.27
00:39:50,3.6570,1.8231,3.1632,0.8676,54.02,52.41,826,8.26
00:40:00,3.6530,1.8237,3.1818,0.8727,54.34,52.72,826,8.26
00:40:10,3.6560,1.8228,3.2003,0.8777,54.65,53.02,828,8.28
00:40:20,3.6530,1.8231,3.2188,0.8828,54.97,53.33,822,8.22
00:40:30,3.6530,1.8231,3.2373,0.8878,55.28,53.63,825,8.25
00:40:40,3.6590,1.8254,3.2558,0.8929,55.60,53.94,826,8.26
00:40:50,3.6620,1.8268,3.2744,0.8980,55.92,54.25,827,8.27
00:41:00,3.6620,1.8283,3.2930,0.9031,56.24,54.55,826,8.26
00:41:10,3.6670,1.8290,3.3116,0.9082,56.55,54.86,831,8.31
00:41:20,3.6640,1.8291,3.3302,0.9132,56.87,55.17,825,8.25
00:41:30,3.6670,1.8286,3.3489,0.9183,57.19,55.47,829,8.29
00:41:40,3.6640,1.8309,3.3675,0.9234,57.51,55.78,824,8.24
00:41:50,3.6690,1.8292,3.3861,0.9285,57.83,56.09,830,8.3
00:42:00,3.6570,1.8271,3.4047,0.9336,58.14,56.40,825,8.25
00:42:10,3.6610,1.8256,3.4233,0.9386,58.46,56.70,831,8.31
00:42:20,3.6600,1.8249,3.4418,0.9437,58.78,57.01,822,8.22
00:42:30,3.6570,1.8236,3.4604,0.9488,59.09,57.31,828,8.28
00:42:40,3.6590,1.8262,3.4789,0.9538,59.41,57.62,824,8.24
00:42:50,3.6640,1.8273,3.4975,0.9589,59.73,57.93,827,8.27
00:43:00,3.6690,1.8272,3.5161,0.9640,60.05,58.23,826,8.26
00:43:10,3.6710,1.8297,3.5348,0.9691,60.36,58.54,827,8.27
00:43:20,3.6640,1.8273,3.5534,0.9741,60.68,58.85,830,8.3
00:43:30,3.6670,1.8270,3.5720,0.9792,61.00,59.15,827,8.27
00:43:40,3.6670,1.8279,3.5906,0.9843,61.32,59.46,826,8.26
00:43:50,3.6720,1.8275,3.6093,0.9894,61.64,59.77,822,8.22
00:44:00,3.6720,1.8270,3.6279,0.9944,61.95,60.07,831,8.31
00:44:10,3.6750,1.8312,3.6466,0.9995,62.27,60.38,824,8.24
00:44:20,3.6780,1.8312,3.6653,1.0046,62.59,60.69,827,8.27
00:44:30,3.6810,1.8340,3.6840,1.0097,62.91,61.00,827,8.27
00:44:40,3.6850,1.8390,3.7029,1.0148,63.23,61.31,832,8.32
00:44:50,3.6930,1.8378,3.7217,1.0199,63.56,61.61,829,8.29
00:45:00,3.6980,1.8413,3.7406,1.0250,63.88,61.92,833,8.33
00:45:10,3.7010,1.8456,3.7596,1.0302,64.20,62.23,833,8.33
00:45:20,3.7080,1.8471,3.7786,1.0353,64.53,62.54,837,8.37
00:45:30,3.7100,1.8508,3.7977,1.0404,64.85,62.85,837,8.37
00:45:40,3.7190,1.8573,3.8169,1.0456,65.18,63.16,840,8.4
00:45:50,3.7250,1.8589,3.8361,1.0508,65.51,63.48,839,8.39
00:46:00,3.7320,1.8628,3.8554,1.0559,65.84,63.79,846,8.46
00:46:10,3.7330,1.8633,3.8748,1.0611,66.17,64.10,844,8.44
00:46:20,3.7350,1.8651,3.8941,1.0663,66.50,64.41,842,8.42
00:46:30,3.7350,1.8662,3.9135,1.0715,66.83,64.73,846,8.46
00:46:40,3.7370,1.8662,3.9329,1.0767,67.16,65.04,846,8.46
00:46:50,3.7350,1.8649,3.9522,1.0818,67.49,65.35,841,8.41
00:47:00,3.7320,1.8613,3.9715,1.0870,67.82,65.67,844,8.44
00:47:10,3.7240,1.8578,3.9907,1.0922,68.15,65.98,844,8.44
00:47:20,3.7130,1.8525,4.0098,1.0973,68.48,66.29,835,8.35
00:47:30,3.7120,1.8485,4.0289,1.1025,68.80,66.60,838,8.38
00:47:40,3.6980,1.8443,4.0478,1.1076,69.13,66.91,835,8.35
00:47:50,3.6960,1.8411,4.0667,1.1127,69.45,67.22,829,8.29
00:48:00,3.6860,1.8363,4.0855,1.1178,69.77,67.53,830,8.3
00:48:10,3.6800,1.8339,4.1043,1.1229,70.09,67.83,829,8.29
00:48:20,3.6750,1.8322,4.1230,1.1280,70.41,68.14,828,8.28
00:48:30,3.6740,1.8312,4.1417,1.1331,70.73,68.45,825,8.25
00:48:40,3.6730,1.8301,4.1603,1.1381,71.05,68.76,827,8.27
00:48:50,3.6650,1.8289,4.1790,1.1432,71.36,69.06,828,8.28
00:49:00,3.6590,1.8257,4.1975,1.1483,71.68,69.37,825,8.25
00:49:10,3.6550,1.8246,4.2160,1.1534,72.00,69.67,824,8.24
00:49:20,3.6520,1.8216,4.2345,1.1584,72.31,69.98,823,8.23
00:49:30,3.6520,1.8216,4.2530,1.1635,72.63,70.29,827,8.27
00:49:40,3.6540,1.8210,4.2715,1.1685,72.94,70.59,826,8.26
00:49:50,3.6500,1.8214,4.2899,1.1736,73.26,70.90,823,8.23
00:50:00,3.6500,1.8212,4.3084,1.1787,73.58,71.20,824,8.24
00:50:10,3.6540,1.8231,4.3269,1.1837,73.89,71.51,825,8.25
00:50:20,3.6620,1.8248,4.3455,1.1888,74.21,71.81,828,8.28
00:50:30,3.6700,1.8282,4.3641,1.1939,74.53,72.12,829,8.29
00:50:40,3.6770,1.8314,4.3828,1.1990,74.85,72.43,828,8.28
00:50:50,3.6930,1.8405,4.4017,1.2041,75.17,72.74,836,8.36
00:51:00,3.7120,1.8523,4.4208,1.2092,75.49,73.05,845,8.45
00:51:10,3.7300,1.8616,4.4401,1.2144,75.82,73.36,851,8.51
00:51:20,3.7080,1.8474,4.4591,1.2195,76.15,73.67,827,8.27
00:51:30,3.7320,1.8639,4.4784,1.2247,76.48,73.98,847,8.47
00:51:40,3.7560,1.8745,4.4980,1.2299,76.81,74.30,859,8.59
00:51:50,3.7910,1.8931,4.5179,1.2352,77.15,74.62,864,8.64
00:52:00,2.2850,0.3072,4.5199,1.2360,77.19,74.67,677,6.77
00:52:10,5.3190,0.0092,4.5200,1.2360,77.19,74.67,596,5.96
00:52:20,2.5670,0.3817,4.5227,1.2371,77.24,74.73,308,3.08
00:52:30,2.4840,0.3584,4.5252,1.2381,77.28,74.79,257,2.57
00:52:40,2.4410,0.3046,4.5273,1.2389,77.31,74.84,234,2.34
00:52:50,2.4680,0.3730,4.5298,1.2400,77.36,74.91,234,2.34
00:53:00,2.5160,0.4082,4.5327,1.2411,77.41,74.98,256,2.56
00:53:10,2.9050,0.6279,4.5378,1.2429,77.49,75.08,295,2.95
00:53:20,5.3200,0.0092,4.5379,1.2429,77.49,75.08,491,4.91
00:53:30,5.3200,0.0092,4.5380,1.2429,77.50,75.08,582,5.82
00:53:40,2.5350,0.3955,4.5408,1.2440,77.54,75.15,268,2.68
00:53:50,2.5920,0.4319,4.5439,1.2452,77.60,75.22,310,3.1
00:54:00,2.9590,1.5268,4.5565,1.2494,77.81,75.48,412,4.12
00:54:10,3.8520,1.9229,4.5770,1.2548,78.16,75.80,862,8.62
00:54:20,3.8560,1.9218,4.5976,1.2601,78.51,76.12,884,8.84
00:54:30,3.8190,1.9025,4.6178,1.2654,78.86,76.44,878,8.78
00:54:40,3.7780,1.8852,4.6376,1.2707,79.20,76.76,865,8.65
00:54:50,3.7720,1.8778,4.6573,1.2759,79.53,77.07,860,8.6
00:55:00,3.7590,1.8745,4.6768,1.2811,79.87,77.39,858,8.58
00:55:10,3.7190,1.8563,4.6960,1.2862,80.19,77.70,851,8.51
00:55:20,2.7910,1.1056,4.7046,1.2893,80.34,77.89,731,7.31
00:55:30,3.2560,0.7057,4.7110,1.2913,80.45,78.00,296,2.96
00:55:40,3.5710,1.7787,4.7286,1.2962,80.75,78.30,761,7.61
00:55:50,3.6130,1.7911,4.7466,1.3012,81.06,78.60,791,7.91
00:56:00,3.7100,1.8466,4.7656,1.3063,81.38,78.91,848,8.48
00:56:10,3.7060,1.8469,4.7846,1.3114,81.71,79.22,844,8.44
00:56:20,2.5270,0.5323,4.7884,1.3129,81.77,79.31,804,8.04
00:56:30,2.2550,0.2594,4.7900,1.3136,81.80,79.36,189.0,1.89
00:56:40,2.2540,0.2655,4.7917,1.3144,81.83,79.40,188.0,1.88
00:56:50,2.2800,0.3008,4.7936,1.3152,81.86,79.45,197.5,1.975
00:57:00,2.2980,0.3309,4.7957,1.3161,81.90,79.51,278,2.78
00:57:10,2.2800,0.3064,4.7976,1.3170,81.93,79.56,201,2.01
00:57:20,2.2610,0.2806,4.7994,1.3178,81.96,79.61,197.5,1.975
00:57:30,2.2580,0.2690,4.8011,1.3185,81.99,79.65,206,2.06
00:57:40,2.2540,0.2657,4.8027,1.3192,82.02,79.70,184.0,1.84
00:57:50,2.2660,0.2895,4.8046,1.3200,82.05,79.74,202,2.02
00:58:00,2.2740,0.3000,4.8065,1.3209,82.08,79.79,217,2.17
00:58:10,2.2720,0.2965,4.8083,1.3217,82.11,79.84,217,2.17
00:58:20,2.2530,0.2701,4.8100,1.3225,82.14,79.89,196.0,1.96
00:58:30,2.2490,0.2524,4.8116,1.3232,82.17,79.93,176.8,1.768
00:58:40,2.2470,0.2509,4.8132,1.3239,82.20,79.97,168.4,1.684
00:58:50,2.2460,0.2538,4.8147,1.3246,82.22,80.02,167.7,1.677
00:59:00,2.2500,0.2493,4.8163,1.3253,82.25,80.06,167.6,1.676
00:59:10,2.2480,0.2500,4.8179,1.3259,82.28,80.10,173.9,1.739
00:59:20,2.2740,0.2867,4.8197,1.3267,82.31,80.15,189.3,1.893
00:59:30,2.2660,0.2718,4.8214,1.3275,82.34,80.19,186.5,1.865
00:59:40,2.5130,0.5457,4.8252,1.3290,82.40,80.29,269,2.69
00:59:50,2.5290,0.5551,4.8291,1.3306,82.47,80.38,478,4.78
01:00:00,2.4870,0.4958,4.8325,1.3319,82.53,80.46,396,3.96
01:00:10,2.9990,1.5691,4.8456,1.3363,82.75,80.72,622,6.22
01:00:20,2.8400,1.3068,4.8559,1.3399,82.92,80.94,597,5.97
01:00:30,2.5500,0.5435,4.8597,1.3414,82.99,81.04,648,6.48
01:00:40,2.2410,0.2152,4.8611,1.3420,83.01,81.07,155.1,1.551
01:00:50,2.2330,0.2162,4.8624,1.3426,83.04,81.11,141.7,1.417
01:01:00,2.2310,0.2012,4.8637,1.3432,83.06,81.14,132.3,1.323
01:01:10,2.2300,0.2029,4.8649,1.3438,83.08,81.18,129.9,1.299
01:01:20,2.2300,0.2078,4.8662,1.3443,83.10,81.21,123.9,1.239
01:01:30,2.2280,0.2040,4.8675,1.3449,83.12,81.24,119.3,1.193
01:01:40,2.2300,0.1815,4.8686,1.3454,83.14,81.28,115.3,1.153
01:01:50,2.2230,0.2022,4.8699,1.3460,83.16,81.31,112.4,1.124
01:02:00,2.2210,0.2024,4.8711,1.3465,83.18,81.34,109.2,1.092
01:02:10,2.2360,0.1731,4.8722,1.3470,83.20,81.37,105.7,1.057
01:02:20,2.2290,0.1706,4.8732,1.3475,83.22,81.40,102.8,1.028
01:02:30,2.2290,0.1875,4.8744,1.3480,83.24,81.43,100.2,1.002
01:02:40,2.2280,0.1723,4.8755,1.3485,83.26,81.46,97.5,0.975
01:02:50,2.2280,0.1716,4.8765,1.3490,83.28,81.49,95.2,0.952
01:03:00,2.2280,0.1739,4.8776,1.3494,83.30,81.52,90.9,0.909
01:03:10,2.2280,0.1708,4.8787,1.3499,83.31,81.55,91.4,0.914
01:03:20,2.2290,0.1673,4.8797,1.3504,83.33,81.58,87.1,0.871
01:03:30,2.2300,0.1673,4.8807,1.3508,83.35,81.60,89.0,0.89
01:03:40,2.2310,0.1643,4.8817,1.3513,83.37,81.63,86.4,0.864
01:03:50,2.2310,0.1637,4.8828,1.3518,83.38,81.66,87.9,0.879
01:04:00,2.2320,0.1688,4.8838,1.3522,83.40,81.69,87.1,0.871
01:04:10,2.2340,0.1664,4.8848,1.3527,83.42,81.72,87.5,0.875
01:04:20,2.2360,0.1706,4.8859,1.3532,83.44,81.74,89.7,0.897
01:04:30,2.2380,0.1701,4.8870,1.3536,83.46,81.77,87.5,0.875
01:04:40,2.2400,0.1726,4.8880,1.3541,83.47,81.80,92.9,0.929
01:04:50,2.2420,0.1761,4.8891,1.3546,83.49,81.83,89.5,0.895
01:05:00,2.2440,0.1774,4.8902,1.3551,83.51,81.86,94.6,0.946
01:05:10,2.2460,0.1771,4.8913,1.3556,83.53,81.89,95.0,0.95
01:05:20,2.2480,0.1827,4.8925,1.3561,83.55,81.92,98.2,0.982
01:05:30,2.2500,0.1827,4.8936,1.3566,83.57,81.95,101.5,1.015
01:05:40,2.2540,0.1882,4.8948,1.3571,83.59,81.98,100.1,1.001
01:05:50,2.2570,0.1948,4.8960,1.3577,83.61,82.02,107.4,1.074
01:06:00,2.2590,0.2001,4.8973,1.3582,83.63,82.05,109.7,1.097
01:06:10,2.2620,0.2016,4.8985,1.3588,83.65,82.08,112.4,1.124
01:06:20,2.2630,0.2037,4.8998,1.3593,83.68,82.12,118.1,1.181
01:06:30,2.2640,0.2050,4.9011,1.3599,83.70,82.15,116.2,1.162
01:06:40,2.2650,0.2066,4.9024,1.3605,83.72,82.19,117.3,1.173
01:06:50,2.2660,0.2054,4.9037,1.3611,83.74,82.22,120.1,1.201
01:07:00,2.2670,0.2049,4.9050,1.3616,83.76,82.26,116.3,1.163
01:07:10,2.2670,0.2063,4.9063,1.3622,83.79,82.29,116.3,1.163
01:07:20,2.2690,0.2117,4.9076,1.3628,83.81,82.33,117.0,1.17
01:07:30,2.2690,0.2112,4.9090,1.3634,83.83,82.36,116.4,1.164
01:07:40,2.2720,0.2138,4.9103,1.3640,83.85,82.40,119.4,1.194
01:07:50,2.2750,0.2219,4.9117,1.3646,83.88,82.43,121.4,1.214
01:08:00,2.2790,0.2293,4.9132,1.3652,83.90,82.47,130.3,1.303
01:08:10,2.2830,0.2374,4.9147,1.3659,83.93,82.51,138.7,1.387
01:08:20,2.2940,0.2623,4.9163,1.3666,83.96,82.56,147.4,1.474
01:08:30,2.3010,0.2788,4.9181,1.3674,83.99,82.60,212,2.12
01:08:40,2.2930,0.2607,4.9198,1.3681,84.02,82.65,168.2,1.682
01:08:50,2.3080,0.3013,4.9217,1.3689,84.05,82.70,171.7,1.717
01:09:00,2.3440,0.3765,4.9242,1.3700,84.09,82.76,252,2.52
01:09:10,2.4920,0.6128,4.9284,1.3717,84.16,82.86,438,4.38
01:09:20,5.3230,0.0092,4.9285,1.3717,84.17,82.87,562,5.62
01:09:30,3.1070,1.6122,4.9425,1.3762,84.40,83.14,648,6.48
01:09:40,3.4580,1.7284,4.9591,1.3810,84.69,83.43,767,7.67
01:09:50,3.4560,1.7124,4.9755,1.3858,84.97,83.71,776,7.76
01:10:00,3.4050,1.7060,4.9916,1.3905,85.24,84.00,768,7.68
01:10:10,3.4070,1.7048,5.0078,1.3952,85.52,84.29,766,7.66
01:10:20,3.4100,1.7063,5.0239,1.4000,85.79,84.57,762,7.62
01:10:30,3.4280,1.7091,5.0402,1.4047,86.07,84.86,769,7.69
01:10:40,3.4100,1.7099,5.0564,1.4095,86.35,85.15,762,7.62
01:10:50,3.4020,1.7090,5.0726,1.4142,86.62,85.43,765,7.65
01:11:00,3.4080,1.7023,5.0887,1.4189,86.90,85.72,760,7.6
01:11:10,3.3930,1.6989,5.1047,1.4237,87.17,86.00,759,7.59
01:11:20,3.3890,1.6970,5.1207,1.4284,87.45,86.29,758,7.58
01:11:30,3.3950,1.6977,5.1367,1.4331,87.72,86.57,757,7.57
01:11:40,3.3960,1.6987,5.1527,1.4378,87.99,86.86,759,7.59
01:11:50,3.3950,1.6947,5.1687,1.4425,88.27,87.14,753,7.53
01:12:00,3.3870,1.6908,5.1846,1.4472,88.54,87.43,757,7.57
01:12:10,3.3840,1.6881,5.2004,1.4519,88.81,87.71,754,7.54
01:12:20,3.3540,1.6751,5.2161,1.4566,89.08,87.99,750,7.5
01:12:30,3.2990,1.6502,5.2312,1.4611,89.33,88.27,742,7.42
01:12:40,2.9550,1.5353,5.2438,1.4654,89.55,88.52,730,7.3
01:12:50,2.4650,0.2780,5.2457,1.4662,89.58,88.57,262,2.62
01:13:00,2.3540,0.2426,5.2473,1.4669,89.61,88.61,126.3,1.263
01:13:10,2.3690,0.2718,5.2491,1.4676,89.64,88.66,134.4,1.344
01:13:20,2.3610,0.2807,5.2509,1.4684,89.67,88.70,153.2,1.532
01:13:30,2.2850,0.2109,5.2522,1.4690,89.69,88.74,147.4,1.474
01:13:40,2.2870,0.2232,5.2537,1.4696,89.72,88.78,120.3,1.203
01:13:50,2.2890,0.2396,5.2552,1.4703,89.74,88.82,124.1,1.241
01:14:00,2.3410,0.3076,5.2572,1.4711,89.78,88.87,165.7,1.657
01:14:10,2.3960,0.3814,5.2597,1.4722,89.82,88.93,259,2.59
01:14:20,2.3370,0.3232,5.2618,1.4731,89.86,88.99,193.5,1.935
01:14:30,2.3800,0.3843,5.2644,1.4741,89.90,89.05,291,2.91
01:14:40,2.3730,0.3907,5.2669,1.4752,89.94,89.12,237,2.37
01:14:50,2.3210,0.3228,5.2690,1.4761,89.98,89.17,244,2.44
01:15:00,2.2770,0.2435,5.2706,1.4768,90.01,89.21,171.5,1.715
01:15:10,2.2670,0.2192,5.2719,1.4774,90.03,89.25,115.6,1.156
01:15:20,2.2620,0.2107,5.2733,1.4780,90.05,89.28,112.9,1.129
01:15:30,2.2730,0.2295,5.2747,1.4786,90.08,89.32,127.7,1.277
01:15:40,2.2850,0.2591,5.2763,1.4793,90.11,89.37,140.2,1.402
01:15:50,2.4440,0.5153,5.2798,1.4808,90.16,89.45,257,2.57
01:16:00,2.9080,1.5062,5.2920,1.4850,90.37,89.71,677,6.77
01:16:10,2.9170,1.5186,5.3043,1.4892,90.58,89.96,668,6.68
01:16:20,3.0840,1.6108,5.3181,1.4937,90.82,90.23,707,7.07
01:16:30,2.9890,1.5617,5.3311,1.4980,91.04,90.49,713,7.13
01:16:40,3.3080,1.6520,5.3463,1.5026,91.30,90.77,727,7.27
01:16:50,3.3090,1.6533,5.3615,1.5072,91.56,91.05,739,7.39
01:17:00,3.2770,1.6405,5.3764,1.5117,91.81,91.32,737,7.37
01:17:10,3.2820,1.6434,5.3914,1.5163,92.07,91.60,735,7.35
01:17:20,3.3750,1.6740,5.4071,1.5209,92.34,91.88,743,7.43
01:17:30,3.3460,1.6701,5.4226,1.5256,92.60,92.16,745,7.45
01:17:40,3.3450,1.6712,5.4381,1.5302,92.87,92.44,742,7.42
01:17:50,3.3450,1.6696,5.4536,1.5349,93.13,92.72,738,7.38
01:18:00,3.3500,1.6659,5.4691,1.5395,93.40,93.00,738,7.38
01:18:10,3.3250,1.6641,5.4845,1.5441,93.66,93.28,737,7.37
01:18:20,3.3330,1.6680,5.4999,1.5487,93.92,93.56,735,7.35
01:18:30,3.3410,1.6697,5.5154,1.5534,94.19,93.84,737,7.37
01:18:40,3.3410,1.6722,5.5310,1.5580,94.45,94.12,736,7.36
01:18:50,3.3410,1.6728,5.5465,1.5627,94.72,94.40,733,7.33
01:19:00,3.3480,1.6723,5.5620,1.5673,94.98,94.68,736,7.36
01:19:10,3.3480,1.6710,5.5776,1.5720,95.25,94.96,734,7.34
01:19:20,3.3370,1.6699,5.5931,1.5766,95.51,95.24,731,7.31
01:19:30,3.3390,1.6707,5.6086,1.5812,95.78,95.52,732,7.32
01:19:40,3.3390,1.6703,5.6240,1.5859,96.04,95.80,734,7.34
01:19:50,3.3360,1.6682,5.6395,1.5905,96.31,96.08,729,7.29
01:20:00,3.3340,1.6665,5.6549,1.5951,96.57,96.36,729,7.29
01:20:10,3.3330,1.6642,5.6703,1.5998,96.83,96.64,732,7.32
01:20:20,3.3300,1.6653,5.6858,1.6044,97.10,96.92,729,7.29
01:20:30,3.3300,1.6661,5.7012,1.6090,97.36,97.20,727,7.27
01:20:40,3.3370,1.6669,5.7166,1.6137,97.62,97.48,733,7.33
01:20:50,3.3370,1.6691,5.7321,1.6183,97.89,97.76,730,7.3
01:21:00,3.3400,1.6706,5.7476,1.6229,98.15,98.04,730,7.3
01:21:10,3.3380,1.6710,5.7631,1.6276,98.42,98.32,731,7.31
01:21:20,3.3380,1.6685,5.7786,1.6322,98.68,98.60,731,7.31
01:21:30,3.3360,1.6658,5.7940,1.6368,98.94,98.88,729,7.29
01:21:40,3.3370,1.6659,5.8094,1.6415,99.21,99.16,725,7.25
01:21:50,3.3360,1.6684,5.8249,1.6461,99.47,99.44,724,7.24
01:22:00,3.3330,1.6677,5.8403,1.6507,99.74,99.72,724,7.24
01:22:10,3.3320,1.6684,5.8558,1.6554,100.00,100.00,726,7.26
01:22:20,2.4810,0.5168,5.8593,1.6568,100.06,100.09,102.5,1.025