File: output/6/aeiusny-4.csv
Time,Voltage(V),Current(A),Energy(Wh),Capacity(Ah),Energy Proportion(%),Capacity Proportion(%),Irradiance(W/m2),Power(W),Sunlight Level
00:00:00,2.0310,0.1289,0.0007,0.0004,0.05,0.08,166.5,0.26,1.665
00:00:10,2.1540,0.1291,0.0015,0.0007,0.10,0.16,165.0,0.28,1.65
00:00:20,5.2280,0.0094,0.0016,0.0007,0.10,0.16,163.2,0.05,1.632
00:00:30,5.2280,0.0093,0.0018,0.0008,0.11,0.17,164.7,0.05,1.647
00:00:40,3.5030,0.1911,0.0036,0.0013,0.23,0.29,168.0,0.67,1.68
00:00:50,4.9550,0.2251,0.0067,0.0019,0.43,0.42,178.4,1.12,1.784
00:01:00,5.2280,0.0087,0.0069,0.0019,0.44,0.43,884.0,0.05,8.84
00:01:10,5.2280,0.0093,0.0070,0.0020,0.45,0.44,897.0,0.05,8.97
00:01:20,5.2290,0.0089,0.0071,0.0020,0.46,0.44,896.0,0.05,8.96
00:01:30,5.2290,0.0093,0.0073,0.0020,0.46,0.45,895.0,0.05,8.95
00:01:40,5.2290,0.0093,0.0074,0.0021,0.47,0.45,895.0,0.05,8.95
00:01:50,5.1600,0.2532,0.0110,0.0028,0.70,0.61,897.0,1.31,8.97
00:02:00,2.7100,1.0174,0.0187,0.0056,1.19,1.23,899.0,2.76,8.99
00:02:10,2.6640,0.7182,0.0240,0.0076,1.53,1.67,902.0,1.91,9.02
00:02:20,2.5710,0.8263,0.0299,0.0099,1.91,2.18,906.0,2.12,9.06
00:02:30,4.0070,0.2738,0.0329,0.0106,2.11,2.34,907.0,1.1,9.07
00:02:40,5.2300,0.0093,0.0331,0.0107,2.12,2.35,909.0,0.05,9.09
00:02:50,5.2300,0.0092,0.0332,0.0107,2.12,2.35,909.0,0.05,9.09
00:03:00,5.2300,0.0091,0.0333,0.0107,2.13,2.36,910.0,0.05,9.1
00:03:10,5.2280,0.1290,0.0352,0.0111,2.25,2.44,910.0,0.67,9.1
00:03:20,3.3670,1.3635,0.0480,0.0149,3.07,3.27,915.0,4.59,9.15
00:03:30,2.4990,0.7264,0.0530,0.0169,3.39,3.72,896.0,1.82,8.96
00:03:40,5.2300,0.0089,0.0531,0.0169,3.40,3.72,820.0,0.05,8.2
00:03:50,2.8170,1.5139,0.0650,0.0211,4.16,4.65,396.0,4.26,3.96
00:04:00,2.8330,1.6577,0.0780,0.0257,4.99,5.67,331.0,4.7,3.31
00:04:10,3.6670,0.3644,0.0817,0.0267,5.23,5.89,781.0,1.34,7.81
00:04:20,5.2300,0.0093,0.0819,0.0267,5.24,5.89,216.0,0.05,2.16
00:04:30,5.2310,0.0085,0.0820,0.0268,5.25,5.90,214.0,0.04,2.14
00:04:40,4.1630,0.1959,0.0843,0.0273,5.39,6.02,214.0,0.82,2.14
00:04:50,4.1560,0.1690,0.0862,0.0278,5.52,6.12,217.0,0.7,2.17
00:05:00,2.9810,2.0718,0.1034,0.0335,6.61,7.39,306.0,6.18,3.06
00:05:10,2.5140,0.7586,0.1087,0.0356,6.95,7.86,931.0,1.91,9.31
00:05:20,2.7520,1.2620,0.1183,0.0391,7.57,8.63,271.0,3.47,2.71
00:05:30,3.7080,1.1082,0.1297,0.0422,8.30,9.31,663.0,4.11,6.63
00:05:40,4.7240,0.2794,0.1334,0.0430,8.53,9.48,232.0,1.32,2.32
00:05:50,2.7930,1.4871,0.1449,0.0471,9.27,10.39,328.0,4.15,3.28
00:06:00,5.2310,0.0093,0.1451,0.0472,9.28,10.39,209.0,0.05,2.09
00:06:10,5.2310,0.0092,0.1452,0.0472,9.29,10.40,202.0,0.05,2.02
00:06:20,5.2310,0.0094,0.1453,0.0472,9.30,10.40,196.0,0.05,1.96
00:06:30,5.2310,0.0092,0.1455,0.0472,9.31,10.41,192.0,0.05,1.92
00:06:40,5.2310,0.0094,0.1456,0.0473,9.32,10.42,188.0,0.05,1.88
00:06:50,5.2310,0.0093,0.1457,0.0473,9.32,10.42,187.0,0.05,1.87
00:07:00,2.1970,0.1589,0.1467,0.0477,9.39,10.52,184.5,0.35,1.845
00:07:10,5.2310,0.0090,0.1468,0.0478,9.39,10.52,183.0,0.05,1.83
00:07:20,5.2310,0.0094,0.1470,0.0478,9.40,10.53,182.0,0.05,1.82
00:07:30,5.2310,0.0085,0.1471,0.0478,9.41,10.54,183.5,0.04,1.835
00:07:40,4.9840,0.1397,0.1490,0.0482,9.54,10.62,184.5,0.7,1.845
00:07:50,3.6490,0.1668,0.1507,0.0487,9.64,10.72,186.5,0.61,1.865
00:08:00,2.3090,0.2714,0.1525,0.0494,9.75,10.89,190.5,0.63,1.905
00:08:10,2.7750,1.2627,0.1622,0.0529,10.38,11.66,210.0,3.5,2.1
00:08:20,5.2300,0.0094,0.1623,0.0529,10.39,11.67,231.0,0.05,2.31
00:08:30,2.7700,1.3122,0.1724,0.0566,11.03,12.47,426.0,3.63,4.26
00:08:40,2.7570,1.2712,0.1822,0.0601,11.66,13.25,305.0,3.5,3.05
00:08:50,2.8830,1.8411,0.1969,0.0652,12.60,14.38,510.0,5.31,5.1
00:09:00,5.2310,0.0093,0.1971,0.0653,12.61,14.38,219.0,0.05,2.19
00:09:10,5.2300,0.0374,0.1976,0.0654,12.64,14.41,203.0,0.2,2.03
00:09:20,5.2310,0.0093,0.1977,0.0654,12.65,14.41,190.5,0.05,1.905
00:09:30,5.2310,0.0089,0.1979,0.0654,12.66,14.42,188.0,0.05,1.88
00:09:40,5.2310,0.0093,0.1980,0.0654,12.67,14.42,195.5,0.05,1.955
00:09:50,5.2300,0.0093,0.1981,0.0655,12.68,14.43,585.0,0.05,5.85
00:10:00,5.2310,0.0093,0.1983,0.0655,12.68,14.43,891.0,0.05,8.91
00:10:10,5.2290,0.1077,0.1998,0.0658,12.78,14.50,891.0,0.56,8.91
00:10:20,2.6170,0.8767,0.2062,0.0682,13.19,15.04,890.0,2.29,8.9
00:10:30,5.2310,0.0093,0.2063,0.0683,13.20,15.04,887.0,0.05,8.87
00:10:40,5.2310,0.0089,0.2065,0.0683,13.21,15.05,886.0,0.05,8.86
00:10:50,4.9600,0.8927,0.2188,0.0708,14.00,15.59,883.0,4.43,8.83
00:11:00,2.5210,0.7047,0.2237,0.0727,14.31,16.02,885.0,1.78,8.85
00:11:10,5.2310,0.0092,0.2238,0.0727,14.32,16.03,887.0,0.05,8.87
00:11:20,5.2310,0.0093,0.2240,0.0728,14.33,16.04,885.0,0.05,8.85
00:11:30,5.2310,0.0337,0.2245,0.0729,14.36,16.06,883.0,0.18,8.83
00:11:40,3.8400,1.3426,0.2388,0.0766,15.28,16.88,882.0,5.16,8.82
00:11:50,2.4240,0.6166,0.2429,0.0783,15.54,17.26,881.0,1.49,8.81
00:12:00,5.2310,0.0090,0.2431,0.0783,15.55,17.26,875.0,0.05,8.75
00:12:10,5.2310,0.0094,0.2432,0.0784,15.56,17.27,874.0,0.05,8.74
00:12:20,5.2310,0.0093,0.2433,0.0784,15.57,17.27,871.0,0.05,8.71
00:12:30,5.2300,0.1815,0.2460,0.0789,15.74,17.38,866.0,0.95,8.66
00:12:40,2.7100,0.9636,0.2532,0.0816,16.20,17.97,868.0,2.61,8.68
00:12:50,4.8040,0.1347,0.2550,0.0819,16.32,18.06,867.0,0.65,8.67
00:13:00,5.2310,0.0091,0.2552,0.0820,16.32,18.06,869.0,0.05,8.69
00:13:10,5.2310,0.0093,0.2553,0.0820,16.33,18.07,858.0,0.05,8.58
00:13:20,2.8240,1.4508,0.2667,0.0860,17.06,18.96,388.0,4.1,3.88
00:13:30,5.2310,0.0093,0.2668,0.0860,17.07,18.96,578.0,0.05,5.78
00:13:40,5.2320,0.0093,0.2669,0.0861,17.08,18.97,764.0,0.05,7.64
00:13:50,3.8790,1.2702,0.2806,0.0896,17.95,19.74,870.0,4.93,8.7
00:14:00,4.2200,0.2190,0.2832,0.0902,18.12,19.88,862.0,0.92,8.62
00:14:10,5.2320,0.0093,0.2833,0.0902,18.13,19.88,862.0,0.05,8.62
00:14:20,5.2320,0.0091,0.2835,0.0903,18.14,19.89,852.0,0.05,8.52
00:14:30,4.0800,1.1882,0.2969,0.0936,19.00,20.62,869.0,4.85,8.69
00:14:40,0.8810,0.0001,0.2969,0.0936,19.00,20.62,875.0,0.0,8.75
00:14:50,5.2310,0.0093,0.2971,0.0936,19.01,20.62,887.0,0.05,8.87
00:15:00,5.2320,0.0093,0.2972,0.0936,19.01,20.63,605.0,0.05,6.05
00:15:10,2.6070,0.5655,0.3013,0.0952,19.28,20.98,707.0,1.47,7.07
00:15:20,5.2310,0.0093,0.3014,0.0952,19.28,20.98,516.0,0.05,5.16
00:15:30,3.1000,1.1868,0.3117,0.0985,19.94,21.71,865.0,3.68,8.65
00:15:40,2.8060,1.4143,0.3227,0.1024,20.64,22.57,392.0,3.97,3.92
00:15:50,5.2310,0.0094,0.3228,0.1025,20.65,22.58,730.0,0.05,7.3
00:16:00,5.2320,0.0093,0.3229,0.1025,20.66,22.58,869.0,0.05,8.69
00:16:10,5.2320,0.0512,0.3237,0.1026,20.71,22.62,870.0,0.27,8.7
00:16:20,2.4290,0.5293,0.3273,0.1041,20.94,22.94,874.0,1.29,8.74
00:16:30,5.2320,0.0087,0.3274,0.1041,20.95,22.95,876.0,0.05,8.76
00:16:40,5.2290,0.1430,0.3295,0.1045,21.08,23.03,876.0,0.75,8.76
00:16:50,2.8890,0.4366,0.3330,0.1057,21.30,23.30,872.0,1.26,8.72
00:17:00,5.2320,0.0093,0.3331,0.1058,21.31,23.31,872.0,0.05,8.72
00:17:10,5.2320,0.0093,0.3332,0.1058,21.32,23.31,868.0,0.05,8.68
00:17:20,2.6160,0.8321,0.3393,0.1081,21.71,23.82,868.0,2.18,8.68
00:17:30,5.2320,0.0092,0.3394,0.1081,21.72,23.83,843.0,0.05,8.43
00:17:40,2.7310,1.0673,0.3475,0.1111,22.23,24.48,238.0,2.91,2.38
00:17:50,5.2320,0.0089,0.3476,0.1111,22.24,24.49,168.6,0.05,1.686
00:18:00,5.2330,0.0086,0.3478,0.1111,22.25,24.49,161.1,0.05,1.611
00:18:10,4.9710,0.0880,0.3490,0.1114,22.33,24.54,161.6,0.44,1.616
00:18:20,2.9710,0.1834,0.3505,0.1119,22.42,24.66,163.9,0.54,1.639
00:18:30,5.2320,0.0093,0.3506,0.1119,22.43,24.66,175.3,0.05,1.753
00:18:40,5.2320,0.0086,0.3508,0.1119,22.44,24.67,834.0,0.04,8.34
00:18:50,5.2320,0.0589,0.3516,0.1121,22.50,24.70,842.0,0.31,8.42
00:19:00,2.8210,1.4096,0.3627,0.1160,23.20,25.57,520.0,3.98,5.2
00:19:10,5.2330,0.0094,0.3628,0.1160,23.21,25.57,186.0,0.05,1.86
00:19:20,5.2330,0.0093,0.3629,0.1161,23.22,25.58,154.5,0.05,1.545
00:19:30,5.2330,0.0093,0.3631,0.1161,23.23,25.58,170.8,0.05,1.708
00:19:40,4.5040,0.0612,0.3638,0.1163,23.28,25.62,149.8,0.28,1.498
00:19:50,3.6530,0.1828,0.3657,0.1168,23.40,25.73,151.3,0.67,1.513
00:20:00,5.2330,0.0089,0.3658,0.1168,23.40,25.74,149.3,0.05,1.493
00:20:10,5.2320,0.0093,0.3660,0.1168,23.41,25.74,147.9,0.05,1.479
00:20:20,5.2330,0.0087,0.3661,0.1168,23.42,25.75,182.4,0.05,1.824
00:20:30,5.2320,0.0085,0.3662,0.1169,23.43,25.75,160.6,0.04,1.606
00:20:40,5.2330,0.0092,0.3663,0.1169,23.44,25.76,198.0,0.05,1.98
00:20:50,5.2310,0.0093,0.3665,0.1169,23.45,25.77,472.0,0.05,4.72
00:21:00,2.8770,1.7044,0.3801,0.1217,24.32,26.81,467.0,4.9,4.67
00:21:10,2.8100,1.4256,0.3912,0.1256,25.03,27.68,403.0,4.01,4.03
00:21:20,2.9010,1.8639,0.4062,0.1308,25.99,28.82,329.0,5.41,3.29
00:21:30,3.8460,1.2635,0.4197,0.1343,26.85,29.60,756.0,4.86,7.56
00:21:40,4.8880,0.0935,0.4210,0.1346,26.94,29.65,667.0,0.46,6.67
00:21:50,5.2320,0.0093,0.4211,0.1346,26.94,29.66,177.9,0.05,1.779
00:22:00,2.9040,1.9129,0.4366,0.1399,27.93,30.83,385.0,5.56,3.85
00:22:10,5.2320,0.0093,0.4367,0.1399,27.94,30.84,813.0,0.05,8.13
00:22:20,2.9800,1.1873,0.4465,0.1432,28.57,31.56,684.0,3.54,6.84
00:22:30,5.2320,0.0088,0.4467,0.1432,28.58,31.57,800.0,0.05,8.0
00:22:40,5.2320,0.0090,0.4468,0.1433,28.58,31.57,800.0,0.05,8.0
00:22:50,3.7830,1.2797,0.4602,0.1468,29.45,32.36,793.0,4.84,7.93
00:23:00,5.0410,0.0730,0.4613,0.1470,29.51,32.40,792.0,0.37,7.92
00:23:10,5.2320,0.0093,0.4614,0.1471,29.52,32.41,783.0,0.05,7.83
00:23:20,5.2320,0.0094,0.4615,0.1471,29.53,32.41,792.0,0.05,7.92
00:23:30,2.6110,0.8426,0.4677,0.1494,29.92,32.93,793.0,2.2,7.93
00:23:40,5.2320,0.0094,0.4678,0.1494,29.93,32.94,799.0,0.05,7.99
00:23:50,5.2320,0.0093,0.4679,0.1495,29.94,32.94,798.0,0.05,7.98
00:24:00,3.0640,1.1396,0.4776,0.1526,30.56,33.64,799.0,3.49,7.99
00:24:10,3.1000,0.3796,0.4809,0.1537,30.77,33.87,799.0,1.18,7.99
00:24:20,5.2320,0.0090,0.4810,0.1537,30.77,33.88,801.0,0.05,8.01
00:24:30,5.2320,0.0092,0.4812,0.1537,30.78,33.88,803.0,0.05,8.03
00:24:40,3.3370,1.2963,0.4932,0.1573,31.55,34.68,803.0,4.33,8.03
00:24:50,5.2320,0.0086,0.4933,0.1574,31.56,34.68,801.0,0.04,8.01
00:25:00,5.2330,0.0090,0.4934,0.1574,31.57,34.69,802.0,0.05,8.02
00:25:10,3.5580,1.3100,0.5064,0.1610,32.40,35.49,803.0,4.66,8.03
00:25:20,5.2320,0.0085,0.5065,0.1611,32.40,35.49,802.0,0.04,8.02
00:25:30,5.2320,0.0089,0.5066,0.1611,32.41,35.50,802.0,0.05,8.02
00:25:40,5.1750,0.2072,0.5096,0.1617,32.60,35.63,802.0,1.07,8.02
00:25:50,5.2320,0.0087,0.5097,0.1617,32.61,35.63,801.0,0.05,8.01
00:26:00,5.2320,0.0092,0.5099,0.1617,32.62,35.64,800.0,0.05,8.0
00:26:10,5.0960,0.4680,0.5165,0.1630,33.04,35.92,800.0,2.38,8.0
00:26:20,3.6210,0.3074,0.5196,0.1639,33.24,36.11,801.0,1.11,8.01
00:26:30,5.2320,0.0093,0.5197,0.1639,33.25,36.12,801.0,0.05,8.01
00:26:40,5.2330,0.0093,0.5199,0.1639,33.26,36.12,802.0,0.05,8.02
00:26:50,0.5240,0.0000,0.5199,0.1639,33.26,36.12,801.0,0.0,8.01
00:27:00,5.2330,0.0093,0.5200,0.1639,33.27,36.13,800.0,0.05,8.0
00:27:10,3.1130,1.2226,0.5306,0.1673,33.94,36.88,800.0,3.81,8.0
00:27:20,5.2320,0.0094,0.5307,0.1674,33.95,36.88,802.0,0.05,8.02
00:27:30,5.2330,0.0092,0.5308,0.1674,33.96,36.89,801.0,0.05,8.01
00:27:40,4.7090,0.9481,0.5432,0.1700,34.75,37.47,806.0,4.46,8.06
00:27:50,4.6780,0.1439,0.5451,0.1704,34.87,37.56,806.0,0.67,8.06
00:28:00,5.2320,0.0093,0.5452,0.1704,34.88,37.56,807.0,0.05,8.07
00:28:10,5.2320,0.1045,0.5468,0.1707,34.98,37.63,806.0,0.55,8.06
00:28:20,3.0670,0.4291,0.5504,0.1719,35.21,37.89,805.0,1.32,8.05
00:28:30,5.2320,0.0092,0.5505,0.1720,35.22,37.89,810.0,0.05,8.1
00:28:40,5.2330,0.0093,0.5507,0.1720,35.23,37.90,808.0,0.05,8.08
00:28:50,4.7040,0.1089,0.5521,0.1723,35.32,37.97,805.0,0.51,8.05
00:29:00,5.2330,0.0086,0.5522,0.1723,35.33,37.97,808.0,0.05,8.08
00:29:10,5.1340,0.3096,0.5566,0.1732,35.61,38.16,808.0,1.59,8.08
00:29:20,3.8680,0.2352,0.5592,0.1738,35.77,38.31,810.0,0.91,8.1
00:29:30,5.2330,0.0093,0.5593,0.1738,35.78,38.31,810.0,0.05,8.1
00:29:40,5.2310,0.1170,0.5610,0.1742,35.89,38.38,811.0,0.61,8.11
00:29:50,5.2320,0.0092,0.5611,0.1742,35.90,38.39,811.0,0.05,8.11
00:30:00,5.2320,0.0093,0.5613,0.1742,35.91,38.39,812.0,0.05,8.12
00:30:10,4.0350,1.1779,0.5745,0.1775,36.75,39.12,812.0,4.75,8.12
00:30:20,5.2320,0.0091,0.5746,0.1775,36.76,39.12,811.0,0.05,8.11
00:30:30,5.2330,0.0093,0.5747,0.1775,36.77,39.13,812.0,0.05,8.12
00:30:40,2.4670,0.6309,0.5791,0.1793,37.05,39.51,810.0,1.56,8.1
00:30:50,5.2320,0.0088,0.5792,0.1793,37.06,39.52,810.0,0.05,8.1
00:31:00,5.2330,0.0093,0.5793,0.1793,37.06,39.52,812.0,0.05,8.12
00:31:10,2.4720,0.6514,0.5838,0.1812,37.35,39.92,808.0,1.61,8.08
00:31:20,5.2320,0.0091,0.5839,0.1812,37.36,39.93,810.0,0.05,8.1
00:31:30,5.2330,0.0093,0.5841,0.1812,37.37,39.93,809.0,0.05,8.09
00:31:40,2.4010,0.5461,0.5877,0.1827,37.60,40.27,809.0,1.31,8.09
00:31:50,0.4670,0.0000,0.5877,0.1827,37.60,40.27,811.0,0.0,8.11
00:32:00,5.2330,0.0094,0.5878,0.1828,37.61,40.27,814.0,0.05,8.14
00:32:10,5.2330,0.0092,0.5880,0.1828,37.62,40.28,815.0,0.05,8.15
00:32:20,2.5220,0.6570,0.5926,0.1846,37.91,40.68,817.0,1.66,8.17
00:32:30,5.2330,0.0088,0.5927,0.1846,37.92,40.69,820.0,0.05,8.2
00:32:40,5.0040,0.7153,0.6027,0.1866,38.56,41.13,817.0,3.58,8.17
00:32:50,5.0970,0.1156,0.6043,0.1869,38.66,41.20,819.0,0.59,8.19
00:33:00,5.2330,0.0093,0.6044,0.1870,38.67,41.20,822.0,0.05,8.22
00:33:10,4.2710,1.0616,0.6170,0.1899,39.48,41.85,820.0,4.53,8.2
00:33:20,5.2320,0.0088,0.6172,0.1899,39.48,41.86,821.0,0.05,8.21
00:33:30,5.2330,0.0093,0.6173,0.1900,39.49,41.86,825.0,0.05,8.25
00:33:40,3.5910,1.2199,0.6295,0.1933,40.27,42.61,823.0,4.38,8.23
00:33:50,5.2330,0.0093,0.6296,0.1934,40.28,42.62,822.0,0.05,8.22
00:34:00,5.2320,0.0651,0.6305,0.1936,40.34,42.66,820.0,0.34,8.2
00:34:10,3.8070,0.2470,0.6331,0.1942,40.51,42.81,823.0,0.94,8.23
00:34:20,5.2330,0.0093,0.6333,0.1943,40.52,42.81,824.0,0.05,8.24
00:34:30,5.0930,0.5430,0.6410,0.1958,41.01,43.14,826.0,2.77,8.26
00:34:40,5.0460,0.0736,0.6420,0.1960,41.07,43.19,824.0,0.37,8.24
00:34:50,5.2330,0.0093,0.6421,0.1960,41.08,43.20,830.0,0.05,8.3
00:35:00,2.5560,0.7288,0.6473,0.1980,41.41,43.64,824.0,1.86,8.24
00:35:10,5.2330,0.0093,0.6474,0.1981,41.42,43.65,820.0,0.05,8.2
00:35:20,5.2330,0.0093,0.6476,0.1981,41.43,43.65,802.0,0.05,8.02
00:35:30,5.2320,0.0673,0.6486,0.1983,41.49,43.69,817.0,0.35,8.17
00:35:40,3.4710,0.3289,0.6517,0.1992,41.70,43.90,814.0,1.14,8.14
00:35:50,5.2330,0.0093,0.6519,0.1992,41.70,43.90,816.0,0.05,8.16
00:36:00,5.0290,0.6994,0.6616,0.2011,42.33,44.33,821.0,3.52,8.21
00:36:10,4.4700,0.0929,0.6628,0.2014,42.40,44.39,816.0,0.42,8.16
00:36:20,5.2330,0.0094,0.6629,0.2014,42.41,44.39,815.0,0.05,8.15
00:36:30,5.2310,0.1717,0.6654,0.2019,42.57,44.50,814.0,0.9,8.14
00:36:40,2.4100,0.4812,0.6686,0.2032,42.78,44.79,809.0,1.16,8.09
00:36:50,2.7680,0.9680,0.6761,0.2059,43.25,45.38,805.0,2.68,8.05
00:37:00,5.2320,0.0093,0.6762,0.2060,43.26,45.39,802.0,0.05,8.02
00:37:10,5.2330,0.0092,0.6764,0.2060,43.27,45.40,801.0,0.05,8.01
00:37:20,3.8940,1.1859,0.6892,0.2093,44.09,46.12,805.0,4.62,8.05
00:37:30,5.2320,0.0092,0.6893,0.2093,44.10,46.13,802.0,0.05,8.02
00:37:40,5.2330,0.0093,0.6894,0.2093,44.11,46.13,801.0,0.05,8.01
00:37:50,2.9840,1.0998,0.6986,0.2124,44.69,46.81,798.0,3.28,7.98
00:38:00,5.2320,0.0094,0.6987,0.2124,44.70,46.81,797.0,0.05,7.97
00:38:10,5.2330,0.0091,0.6988,0.2124,44.71,46.82,795.0,0.05,7.95
00:38:20,5.2310,0.0787,0.7000,0.2127,44.78,46.87,793.0,0.41,7.93
00:38:30,2.7460,0.5042,0.7038,0.2141,45.03,47.17,792.0,1.38,7.92
00:38:40,5.2330,0.0094,0.7040,0.2141,45.04,47.18,789.0,0.05,7.89
00:38:50,5.2330,0.0095,0.7041,0.2141,45.05,47.19,789.0,0.05,7.89
00:39:00,2.4890,0.6030,0.7083,0.2158,45.31,47.55,785.0,1.5,7.85
00:39:10,3.5710,0.2747,0.7110,0.2165,45.49,47.72,788.0,0.98,7.88
00:39:20,5.2330,0.0090,0.7111,0.2166,45.50,47.73,788.0,0.05,7.88
00:39:30,5.2330,0.0087,0.7112,0.2166,45.50,47.73,787.0,0.05,7.87
00:39:40,2.5900,0.8227,0.7172,0.2189,45.88,48.24,787.0,2.13,7.87
00:39:50,5.2330,0.0084,0.7173,0.2189,45.89,48.24,790.0,0.04,7.9
00:40:00,5.2330,0.0088,0.7174,0.2189,45.90,48.25,778.0,0.05,7.78
00:40:10,5.2260,0.1430,0.7195,0.2193,46.03,48.34,707.0,0.75,7.07
00:40:20,3.0120,2.0480,0.7366,0.2250,47.13,49.59,524.0,6.17,5.24
00:40:30,2.3870,0.5244,0.7401,0.2265,47.35,49.91,761.0,1.25,7.61
00:40:40,5.2330,0.0093,0.7402,0.2265,47.36,49.92,772.0,0.05,7.72
00:40:50,5.2340,0.0093,0.7404,0.2265,47.37,49.92,760.0,0.05,7.6
00:41:00,1.9140,0.1204,0.7410,0.2269,47.41,50.00,110.1,0.23,1.101
00:41:10,1.9840,0.0031,0.7410,0.2269,47.41,50.00,100.2,0.01,1.002
00:41:20,1.8960,0.1395,0.7418,0.2273,47.46,50.08,97.2,0.26,0.972
00:41:30,2.0170,0.0034,0.7418,0.2273,47.46,50.08,94.7,0.01,0.947
00:41:40,1.9460,0.1239,0.7425,0.2276,47.50,50.16,92.1,0.24,0.921
00:41:50,2.0110,0.0385,0.7427,0.2277,47.51,50.18,90.7,0.08,0.907
00:42:00,1.8960,0.1157,0.7433,0.2280,47.55,50.25,90.6,0.22,0.906
00:42:10,2.0240,0.0339,0.7435,0.2281,47.57,50.28,90.2,0.07,0.902
00:42:20,2.0440,0.0101,0.7435,0.2282,47.57,50.28,90.0,0.02,0.9
00:42:30,5.2330,0.0093,0.7437,0.2282,47.58,50.29,90.0,0.05,0.9
00:42:40,2.1780,0.0974,0.7443,0.2285,47.62,50.35,90.3,0.21,0.903
00:42:50,5.2330,0.0092,0.7444,0.2285,47.62,50.35,90.5,0.05,0.905
00:43:00,4.8010,0.1198,0.7460,0.2288,47.73,50.43,91.0,0.58,0.91
00:43:10,5.2330,0.0092,0.7461,0.2288,47.73,50.43,91.0,0.05,0.91
00:43:20,5.2330,0.0091,0.7462,0.2289,47.74,50.44,91.4,0.05,0.914
00:43:30,2.2110,0.1266,0.7470,0.2292,47.79,50.51,92.6,0.28,0.926
00:43:40,5.2330,0.0093,0.7472,0.2292,47.80,50.52,93.8,0.05,0.938
00:43:50,2.2820,0.1074,0.7478,0.2295,47.85,50.59,95.0,0.25,0.95
00:44:00,5.2330,0.0092,0.7480,0.2296,47.85,50.59,95.7,0.05,0.957
00:44:10,2.2040,0.1010,0.7486,0.2298,47.89,50.65,96.3,0.22,0.963
00:44:20,5.2330,0.0091,0.7487,0.2299,47.90,50.66,97.1,0.05,0.971
00:44:30,4.3160,0.1449,0.7505,0.2303,48.01,50.75,97.9,0.63,0.979
00:44:40,5.2330,0.0093,0.7506,0.2303,48.02,50.75,99.0,0.05,0.99
00:44:50,3.9030,0.1555,0.7523,0.2307,48.13,50.85,99.4,0.61,0.994
00:45:00,5.2330,0.0093,0.7524,0.2308,48.14,50.85,99.6,0.05,0.996
00:45:10,5.2330,0.0093,0.7526,0.2308,48.15,50.86,99.9,0.05,0.999
00:45:20,4.7010,0.0654,0.7534,0.2310,48.20,50.90,100.0,0.31,1.0
00:45:30,5.2330,0.0093,0.7535,0.2310,48.21,50.91,99.3,0.05,0.993
00:45:40,5.0870,0.0550,0.7543,0.2311,48.26,50.94,98.4,0.28,0.984
00:45:50,5.2320,0.0093,0.7545,0.2312,48.27,50.95,98.3,0.05,0.983
00:46:00,2.3200,0.1399,0.7554,0.2316,48.33,51.03,99.0,0.32,0.99
00:46:10,5.2330,0.0087,0.7555,0.2316,48.33,51.04,99.2,0.05,0.992
00:46:20,5.1800,0.0864,0.7567,0.2318,48.41,51.09,98.5,0.45,0.985
00:46:30,5.2320,0.0089,0.7569,0.2318,48.42,51.09,99.7,0.05,0.997
00:46:40,5.2190,0.0963,0.7583,0.2321,48.51,51.15,100.3,0.5,1.003
00:46:50,5.2320,0.0085,0.7584,0.2321,48.52,51.16,101.2,0.04,1.012
00:47:00,5.2330,0.0087,0.7585,0.2322,48.53,51.16,101.2,0.05,1.012
00:47:10,2.2180,0.1126,0.7592,0.2325,48.57,51.23,103.5,0.25,1.035
00:47:20,5.2320,0.0093,0.7593,0.2325,48.58,51.24,104.8,0.05,1.048
00:47:30,2.2400,0.1577,0.7603,0.2329,48.64,51.34,106.2,0.35,1.062
00:47:40,5.2320,0.0092,0.7604,0.2330,48.65,51.34,109.3,0.05,1.093
00:47:50,5.2320,0.0094,0.7606,0.2330,48.66,51.35,113.0,0.05,1.13
00:48:00,3.6980,0.1714,0.7623,0.2335,48.77,51.45,116.4,0.63,1.164
00:48:10,5.2320,0.0088,0.7625,0.2335,48.78,51.46,120.8,0.05,1.208
00:48:20,5.2320,0.0087,0.7626,0.2335,48.79,51.46,123.8,0.05,1.238
00:48:30,2.3680,0.1511,0.7636,0.2339,48.85,51.55,125.9,0.36,1.259
00:48:40,5.2310,0.0238,0.7639,0.2340,48.87,51.57,134.8,0.12,1.348
00:48:50,2.9530,1.8877,0.7794,0.2392,49.87,52.72,397.0,5.57,3.97
00:49:00,5.2310,0.0093,0.7796,0.2393,49.87,52.73,691.0,0.05,6.91
00:49:10,5.1600,0.2243,0.7828,0.2399,50.08,52.87,776.0,1.16,7.76
00:49:20,2.9440,0.4987,0.7869,0.2413,50.34,53.17,771.0,1.47,7.71
00:49:30,5.2310,0.0091,0.7870,0.2413,50.35,53.18,770.0,0.05,7.7
00:49:40,5.2310,0.0093,0.7871,0.2413,50.36,53.18,770.0,0.05,7.7
00:49:50,5.0210,0.7442,0.7975,0.2434,51.02,53.64,766.0,3.74,7.66
00:50:00,4.2170,0.2749,0.8007,0.2442,51.23,53.81,765.0,1.16,7.65
00:50:10,5.2320,0.0093,0.8009,0.2442,51.24,53.81,763.0,0.05,7.63
00:50:20,3.9450,1.1898,0.8139,0.2475,52.07,54.54,761.0,4.69,7.61
00:50:30,5.2320,0.0087,0.8140,0.2475,52.08,54.55,760.0,0.05,7.6
00:50:40,5.2320,0.0092,0.8142,0.2475,52.09,54.55,762.0,0.05,7.62
00:50:50,4.6230,0.9309,0.8261,0.2501,52.85,55.12,763.0,4.3,7.63
00:51:00,5.2320,0.0234,0.8264,0.2502,52.87,55.14,762.0,0.12,7.62
00:51:10,5.2320,0.0093,0.8266,0.2502,52.88,55.14,761.0,0.05,7.61
00:51:20,5.0620,0.6669,0.8360,0.2521,53.48,55.55,759.0,3.38,7.59
00:51:30,2.4940,0.6106,0.8402,0.2538,53.75,55.93,755.0,1.52,7.55
00:51:40,5.2320,0.0093,0.8403,0.2538,53.76,55.93,757.0,0.05,7.57
00:51:50,5.2320,0.0088,0.8405,0.2538,53.77,55.94,758.0,0.05,7.58
00:52:00,4.7560,0.9231,0.8526,0.2564,54.55,56.50,757.0,4.39,7.57
00:52:10,3.0980,0.4316,0.8564,0.2576,54.79,56.77,758.0,1.34,7.58
00:52:20,5.2320,0.0093,0.8565,0.2576,54.80,56.77,759.0,0.05,7.59
00:52:30,5.2320,0.0093,0.8566,0.2576,54.81,56.78,758.0,0.05,7.58
00:52:40,5.1050,0.4224,0.8626,0.2588,55.19,57.04,757.0,2.16,7.57
00:52:50,2.5180,0.5577,0.8665,0.2604,55.44,57.38,759.0,1.4,7.59
00:53:00,5.2320,0.0092,0.8667,0.2604,55.45,57.38,759.0,0.05,7.59
00:53:10,5.2320,0.0092,0.8668,0.2604,55.45,57.39,759.0,0.05,7.59
00:53:20,3.1610,1.1823,0.8772,0.2637,56.12,58.11,759.0,3.74,7.59
00:53:30,2.7410,0.5017,0.8810,0.2651,56.36,58.42,756.0,1.38,7.56
00:53:40,5.2320,0.0099,0.8811,0.2651,56.37,58.43,755.0,0.05,7.55
00:53:50,5.2300,0.1619,0.8835,0.2656,56.52,58.52,756.0,0.85,7.56
00:54:00,2.4480,0.5934,0.8875,0.2672,56.78,58.89,754.0,1.45,7.54
00:54:10,5.2320,0.0093,0.8877,0.2672,56.79,58.89,752.0,0.05,7.52
00:54:20,5.2320,0.0093,0.8878,0.2673,56.80,58.90,752.0,0.05,7.52
00:54:30,4.9670,0.8234,0.8992,0.2695,57.53,59.40,749.0,4.09,7.49
00:54:40,3.6180,0.2980,0.9021,0.2704,57.72,59.59,746.0,1.08,7.46
00:54:50,5.2320,0.0093,0.9023,0.2704,57.73,59.59,746.0,0.05,7.46
00:55:00,5.1740,0.2243,0.9055,0.2710,57.93,59.73,744.0,1.16,7.44
00:55:10,2.7330,0.4578,0.9090,0.2723,58.15,60.01,741.0,1.25,7.41
00:55:20,5.2320,0.0086,0.9091,0.2723,58.16,60.01,737.0,0.04,7.37
00:55:30,5.2320,0.0089,0.9092,0.2723,58.17,60.02,739.0,0.05,7.39
00:55:40,3.7150,1.3520,0.9232,0.2761,59.06,60.85,738.0,5.02,7.38
00:55:50,5.2320,0.0094,0.9233,0.2761,59.07,60.85,738.0,0.05,7.38
00:56:00,5.2330,0.0089,0.9235,0.2762,59.08,60.86,740.0,0.05,7.4
00:56:10,3.7050,1.2750,0.9366,0.2797,59.92,61.64,738.0,4.72,7.38
00:56:20,5.2320,0.0082,0.9367,0.2797,59.93,61.64,736.0,0.04,7.36
00:56:30,5.2320,0.0087,0.9368,0.2797,59.94,61.65,737.0,0.05,7.37
00:56:40,5.2300,0.1094,0.9384,0.2800,60.04,61.72,734.0,0.57,7.34
00:56:50,5.2320,0.0084,0.9385,0.2801,60.04,61.72,735.0,0.04,7.35
00:57:00,5.2330,0.0089,0.9387,0.2801,60.05,61.73,734.0,0.05,7.34
00:57:10,5.1650,0.2876,0.9428,0.2809,60.32,61.90,735.0,1.49,7.35
00:57:20,3.3450,0.3816,0.9463,0.2820,60.54,62.14,736.0,1.28,7.36
00:57:30,5.2320,0.0093,0.9465,0.2820,60.55,62.14,737.0,0.05,7.37
00:57:40,5.2330,0.0093,0.9466,0.2820,60.56,62.15,737.0,0.05,7.37
00:57:50,2.6540,0.8143,0.9526,0.2843,60.95,62.65,739.0,2.16,7.39
00:58:00,5.2320,0.0094,0.9527,0.2843,60.95,62.65,738.0,0.05,7.38
00:58:10,5.2330,0.0094,0.9529,0.2843,60.96,62.66,739.0,0.05,7.39
00:58:20,3.9660,1.1734,0.9658,0.2876,61.79,63.38,742.0,4.65,7.42
00:58:30,5.2320,0.0084,0.9659,0.2876,61.80,63.38,738.0,0.04,7.38
00:58:40,5.0110,0.0551,0.9667,0.2878,61.85,63.41,738.0,0.28,7.38
00:58:50,5.2320,0.0086,0.9668,0.2878,61.85,63.42,740.0,0.04,7.4
00:59:00,5.2310,0.0963,0.9682,0.2880,61.94,63.48,739.0,0.5,7.39
00:59:10,2.8960,0.4424,0.9718,0.2893,62.17,63.75,740.0,1.28,7.4
00:59:20,5.2320,0.0093,0.9719,0.2893,62.18,63.76,740.0,0.05,7.4
00:59:30,5.2330,0.0093,0.9721,0.2893,62.19,63.76,741.0,0.05,7.41
00:59:40,3.9770,0.2077,0.9743,0.2899,62.34,63.89,742.0,0.83,7.42
00:59:50,5.2330,0.0093,0.9745,0.2899,62.34,63.89,738.0,0.05,7.38
01:00:00,5.2320,0.0499,0.9752,0.2901,62.39,63.92,739.0,0.26,7.39
01:00:10,2.7540,0.4702,0.9788,0.2914,62.62,64.21,740.0,1.29,7.4
01:00:20,5.2320,0.0093,0.9789,0.2914,62.63,64.22,736.0,0.05,7.36
01:00:30,4.7920,0.8559,0.9903,0.2938,63.36,64.74,735.0,4.1,7.35
01:00:40,2.4920,0.6270,0.9947,0.2955,63.64,65.13,737.0,1.56,7.37
01:00:50,5.2320,0.0088,0.9948,0.2955,63.64,65.13,736.0,0.05,7.36
01:01:00,5.2330,0.0092,0.9949,0.2956,63.65,65.14,734.0,0.05,7.34
01:01:10,2.5740,0.7414,1.0002,0.2976,63.99,65.59,735.0,1.91,7.35
01:01:20,5.2320,0.0094,1.0004,0.2977,64.00,65.60,734.0,0.05,7.34
01:01:30,5.2310,0.1080,1.0019,0.2980,64.10,65.66,731.0,0.56,7.31
01:01:40,3.4750,0.2998,1.0048,0.2988,64.29,65.85,734.0,1.04,7.34
01:01:50,5.2330,0.0093,1.0050,0.2988,64.30,65.85,736.0,0.05,7.36
01:02:00,5.2320,0.0628,1.0059,0.2990,64.35,65.89,735.0,0.33,7.35
01:02:10,3.0770,0.4519,1.0097,0.3002,64.60,66.17,735.0,1.39,7.35
01:02:20,5.2330,0.0093,1.0099,0.3003,64.61,66.17,737.0,0.05,7.37
01:02:30,5.2320,0.0325,1.0104,0.3004,64.64,66.19,739.0,0.17,7.39
01:02:40,5.2320,0.0086,1.0105,0.3004,64.65,66.20,739.0,0.04,7.39
01:02:50,5.2330,0.0093,1.0106,0.3004,64.66,66.20,737.0,0.05,7.37
01:03:00,4.3760,1.1206,1.0242,0.3035,65.53,66.89,740.0,4.9,7.4
01:03:10,5.2320,0.0085,1.0244,0.3035,65.54,66.89,742.0,0.04,7.42
01:03:20,5.2330,0.0092,1.0245,0.3036,65.54,66.90,740.0,0.05,7.4
01:03:30,4.3490,1.0703,1.0374,0.3065,66.37,67.56,741.0,4.65,7.41
01:03:40,2.5870,0.7396,1.0427,0.3086,66.71,68.01,739.0,1.91,7.39
01:03:50,5.2320,0.0093,1.0429,0.3086,66.72,68.01,741.0,0.05,7.41
01:04:00,5.2330,0.0093,1.0430,0.3086,66.73,68.02,741.0,0.05,7.41
01:04:10,2.5570,0.7539,1.0484,0.3107,67.07,68.48,739.0,1.93,7.39
01:04:20,5.2320,0.0086,1.0485,0.3108,67.08,68.49,742.0,0.04,7.42
01:04:30,5.2330,0.0093,1.0486,0.3108,67.09,68.49,742.0,0.05,7.42
01:04:40,2.4290,0.5283,1.0522,0.3123,67.32,68.82,743.0,1.28,7.43
01:04:50,5.2320,0.0093,1.0523,0.3123,67.32,68.82,744.0,0.05,7.44
01:05:00,4.4820,1.0307,1.0652,0.3151,68.15,69.45,742.0,4.62,7.42
01:05:10,5.2330,0.0087,1.0653,0.3152,68.15,69.46,740.0,0.05,7.4
01:05:20,5.2330,0.0093,1.0654,0.3152,68.16,69.46,740.0,0.05,7.4
01:05:30,3.9460,1.2194,1.0788,0.3186,69.02,70.21,740.0,4.81,7.4
01:05:40,5.2320,0.0094,1.0789,0.3186,69.03,70.22,737.0,0.05,7.37
01:05:50,5.2330,0.0093,1.0791,0.3186,69.03,70.22,736.0,0.05,7.36
01:06:00,3.0400,1.1121,1.0884,0.3217,69.64,70.90,737.0,3.38,7.37
01:06:10,5.2330,0.0093,1.0886,0.3218,69.64,70.91,736.0,0.05,7.36
01:06:20,5.1710,0.2603,1.0923,0.3225,69.88,71.07,733.0,1.35,7.33
01:06:30,4.4910,0.1414,1.0941,0.3229,70.00,71.15,730.0,0.64,7.3
01:06:40,5.2330,0.0092,1.0942,0.3229,70.01,71.16,727.0,0.05,7.27
01:06:50,4.5520,1.0407,1.1074,0.3258,70.85,71.80,728.0,4.74,7.28
01:07:00,5.2330,0.0089,1.1075,0.3258,70.86,71.80,725.0,0.05,7.25
01:07:10,5.2330,0.0092,1.1076,0.3258,70.86,71.81,722.0,0.05,7.22
01:07:20,3.2260,1.2177,1.1185,0.3292,71.56,72.55,719.0,3.93,7.19
01:07:30,5.2330,0.0093,1.1187,0.3292,71.57,72.56,718.0,0.05,7.18
01:07:40,5.2320,0.0704,1.1197,0.3294,71.64,72.60,713.0,0.37,7.13
01:07:50,4.0210,0.2397,1.1224,0.3301,71.81,72.75,713.0,0.96,7.13
01:08:00,5.2330,0.0088,1.1225,0.3301,71.82,72.75,712.0,0.05,7.12
01:08:10,4.8230,0.8274,1.1336,0.3324,72.52,73.26,711.0,3.99,7.11
01:08:20,5.2330,0.0087,1.1337,0.3325,72.53,73.27,712.0,0.05,7.12
01:08:30,5.2330,0.0093,1.1339,0.3325,72.54,73.27,708.0,0.05,7.08
01:08:40,2.5540,0.7520,1.1392,0.3346,72.88,73.73,713.0,1.92,7.13
01:08:50,5.2330,0.0086,1.1393,0.3346,72.89,73.74,708.0,0.05,7.08
01:09:00,5.2330,0.0093,1.1395,0.3346,72.90,73.74,706.0,0.05,7.06
01:09:10,2.7560,0.4843,1.1432,0.3360,73.14,74.04,707.0,1.33,7.07
01:09:20,5.2330,0.0092,1.1433,0.3360,73.15,74.04,708.0,0.05,7.08
01:09:30,5.2310,0.1073,1.1449,0.3363,73.24,74.11,705.0,0.56,7.05
01:09:40,4.3320,0.1846,1.1471,0.3368,73.39,74.22,704.0,0.8,7.04
01:09:50,5.2330,0.0090,1.1472,0.3368,73.40,74.23,702.0,0.05,7.02
01:10:00,2.5610,0.6700,1.1520,0.3387,73.70,74.64,704.0,1.72,7.04
01:10:10,5.2330,0.0084,1.1521,0.3387,73.71,74.64,700.0,0.04,7.0
01:10:20,5.2330,0.0093,1.1522,0.3387,73.72,74.65,698.0,0.05,6.98
01:10:30,2.5600,0.5239,1.1560,0.3402,73.96,74.97,692.0,1.34,6.92
01:10:40,5.2330,0.0092,1.1561,0.3402,73.96,74.98,692.0,0.05,6.92
01:10:50,5.2320,0.0687,1.1571,0.3404,74.03,75.02,688.0,0.36,6.88
01:11:00,4.1540,0.2372,1.1598,0.3411,74.20,75.16,687.0,0.99,6.87
01:11:10,5.2330,0.0088,1.1600,0.3411,74.21,75.17,685.0,0.05,6.85
01:11:20,4.7420,0.8722,1.1714,0.3435,74.95,75.70,686.0,4.14,6.86
01:11:30,5.2330,0.0087,1.1716,0.3435,74.95,75.71,689.0,0.05,6.89
01:11:40,5.2330,0.0093,1.1717,0.3436,74.96,75.71,692.0,0.05,6.92
01:11:50,2.7860,0.4928,1.1755,0.3449,75.21,76.02,691.0,1.37,6.91
01:12:00,5.2330,0.0092,1.1757,0.3450,75.22,76.02,693.0,0.05,6.93
01:12:10,5.2300,0.0949,1.1770,0.3452,75.30,76.08,694.0,0.5,6.94
01:12:20,4.2010,0.2394,1.1798,0.3459,75.48,76.23,696.0,1.01,6.96
01:12:30,5.2330,0.0088,1.1800,0.3459,75.49,76.23,697.0,0.05,6.97
01:12:40,4.9450,0.8115,1.1911,0.3482,76.20,76.73,697.0,4.01,6.97
01:12:50,5.2330,0.0085,1.1912,0.3482,76.21,76.73,695.0,0.04,6.95
01:13:00,5.2330,0.0093,1.1914,0.3482,76.22,76.74,694.0,0.05,6.94
01:13:10,2.4210,0.4678,1.1945,0.3495,76.42,77.03,695.0,1.13,6.95
01:13:20,5.2330,0.0093,1.1946,0.3495,76.43,77.03,696.0,0.05,6.96
01:13:30,0.6230,0.0000,1.1946,0.3495,76.43,77.03,695.0,0.0,6.95
01:13:40,4.0610,1.1765,1.2079,0.3528,77.28,77.75,699.0,4.78,6.99
01:13:50,5.2330,0.0093,1.2080,0.3528,77.29,77.76,698.0,0.05,6.98
01:14:00,5.2330,0.0092,1.2082,0.3529,77.30,77.76,701.0,0.05,7.01
01:14:10,3.4030,1.2340,1.2198,0.3563,78.04,78.52,705.0,4.2,7.05
01:14:20,5.2330,0.0092,1.2200,0.3563,78.05,78.52,705.0,0.05,7.05
01:14:30,5.2310,0.0654,1.2209,0.3565,78.11,78.56,706.0,0.34,7.06
01:14:40,3.6460,0.3036,1.2240,0.3573,78.31,78.75,707.0,1.11,7.07
01:14:50,5.2330,0.0093,1.2241,0.3574,78.32,78.76,709.0,0.05,7.09
01:15:00,5.1530,0.3469,1.2291,0.3583,78.63,78.97,710.0,1.79,7.1
01:15:10,4.3650,0.1741,1.2312,0.3588,78.77,79.07,709.0,0.76,7.09
01:15:20,5.2330,0.0087,1.2313,0.3588,78.78,79.08,711.0,0.05,7.11
01:15:30,5.0010,0.7256,1.2414,0.3608,79.42,79.52,712.0,3.63,7.12
01:15:40,5.1780,0.0772,1.2425,0.3611,79.49,79.57,713.0,0.4,7.13
01:15:50,5.2330,0.0093,1.2427,0.3611,79.50,79.58,710.0,0.05,7.1
01:16:00,4.4140,1.0506,1.2555,0.3640,80.33,80.22,709.0,4.64,7.09
01:16:10,5.2330,0.0088,1.2557,0.3640,80.33,80.22,706.0,0.05,7.06
01:16:20,5.2330,0.0093,1.2558,0.3641,80.34,80.23,702.0,0.05,7.02
01:16:30,2.4160,0.5363,1.2594,0.3655,80.57,80.56,705.0,1.3,7.05
01:16:40,5.2330,0.0093,1.2595,0.3656,80.58,80.56,698.0,0.05,6.98
01:16:50,5.2320,0.0392,1.2601,0.3657,80.62,80.59,692.0,0.21,6.92
01:17:00,3.3530,0.2988,1.2629,0.3665,80.80,80.77,630.0,1.0,6.3
01:17:10,2.1040,0.1394,1.2637,0.3669,80.85,80.86,204.0,0.29,2.04
01:17:20,5.2330,0.0092,1.2638,0.3669,80.86,80.86,119.4,0.05,1.194
01:17:30,5.2330,0.0087,1.2640,0.3669,80.87,80.87,99.9,0.05,0.999
01:17:40,3.9560,0.1198,1.2653,0.3673,80.95,80.94,99.0,0.47,0.99
01:17:50,5.2330,0.0093,1.2654,0.3673,80.96,80.95,97.6,0.05,0.976
01:18:00,5.2330,0.0089,1.2656,0.3673,80.97,80.95,99.9,0.05,0.999
01:18:10,2.3670,0.1449,1.2665,0.3677,81.03,81.04,118.5,0.34,1.185
01:18:20,2.8540,1.4979,1.2784,0.3719,81.79,81.96,196.6,4.28,1.966
01:18:30,4.1940,0.2336,1.2811,0.3725,81.96,82.10,683.0,0.98,6.83
01:18:40,5.2320,0.0093,1.2812,0.3726,81.97,82.11,687.0,0.05,6.87
01:18:50,5.2310,0.1389,1.2833,0.3730,82.10,82.19,682.0,0.73,6.82
01:19:00,5.2320,0.0093,1.2834,0.3730,82.11,82.20,676.0,0.05,6.76
01:19:10,5.2330,0.0093,1.2835,0.3730,82.12,82.20,675.0,0.05,6.75
01:19:20,2.4330,0.5148,1.2870,0.3744,82.34,82.52,672.0,1.25,6.72
01:19:30,5.2330,0.0092,1.2871,0.3745,82.35,82.52,667.0,0.05,6.67
01:19:40,5.2330,0.0093,1.2873,0.3745,82.36,82.53,667.0,0.05,6.67
01:19:50,2.4410,0.5244,1.2908,0.3759,82.58,82.85,662.0,1.28,6.62
01:20:00,5.2330,0.0091,1.2910,0.3760,82.59,82.86,659.0,0.05,6.59
01:20:10,5.2330,0.0093,1.2911,0.3760,82.60,82.86,657.0,0.05,6.57
01:20:20,2.4520,0.5894,1.2951,0.3776,82.86,83.22,655.0,1.45,6.55
01:20:30,5.2330,0.0091,1.2952,0.3777,82.87,83.23,653.0,0.05,6.53
01:20:40,5.0070,0.8206,1.3067,0.3799,83.60,83.73,650.0,4.11,6.5
01:20:50,4.9420,0.0955,1.3080,0.3802,83.68,83.79,650.0,0.47,6.5
01:21:00,5.2330,0.0092,1.3081,0.3802,83.69,83.79,648.0,0.05,6.48
01:21:10,4.9150,0.8458,1.3196,0.3826,84.43,84.31,649.0,4.16,6.49
01:21:20,5.0860,0.1059,1.3211,0.3829,84.52,84.38,646.0,0.54,6.46
01:21:30,5.2330,0.0093,1.3213,0.3829,84.53,84.38,645.0,0.05,6.45
01:21:40,4.8580,0.8619,1.3329,0.3853,85.28,84.91,645.0,4.19,6.45
01:21:50,5.0770,0.0702,1.3339,0.3855,85.34,84.95,646.0,0.36,6.46
01:22:00,5.2330,0.0093,1.3340,0.3855,85.35,84.96,646.0,0.05,6.46
01:22:10,2.6310,0.7872,1.3398,0.3877,85.72,85.44,644.0,2.07,6.44
01:22:20,5.2330,0.0093,1.3399,0.3877,85.72,85.45,647.0,0.05,6.47
01:22:30,5.2330,0.0092,1.3401,0.3878,85.73,85.45,645.0,0.05,6.45
01:22:40,2.5650,0.7605,1.3455,0.3899,86.08,85.92,642.0,1.95,6.42
01:22:50,5.2330,0.0084,1.3456,0.3899,86.09,85.92,644.0,0.04,6.44
01:23:00,5.2330,0.0093,1.3457,0.3899,86.10,85.93,644.0,0.05,6.44
01:23:10,2.5620,0.7301,1.3509,0.3919,86.43,86.38,643.0,1.87,6.43
01:23:20,5.0240,0.6678,1.3603,0.3938,87.03,86.78,644.0,3.36,6.44
01:23:30,5.2320,0.0093,1.3604,0.3938,87.03,86.79,641.0,0.05,6.41
01:23:40,5.2330,0.0090,1.3605,0.3938,87.04,86.80,642.0,0.05,6.42
01:23:50,2.7650,0.9428,1.3678,0.3965,87.51,87.37,643.0,2.61,6.43
01:24:00,5.2330,0.0093,1.3679,0.3965,87.51,87.38,644.0,0.05,6.44
01:24:10,5.2330,0.0091,1.3680,0.3965,87.52,87.38,644.0,0.05,6.44
01:24:20,2.6370,0.7811,1.3737,0.3987,87.89,87.86,642.0,2.06,6.42
01:24:30,5.2330,0.0094,1.3739,0.3987,87.90,87.87,643.0,0.05,6.43
01:24:40,5.2330,0.0093,1.3740,0.3987,87.91,87.87,644.0,0.05,6.44
01:24:50,2.5710,0.7519,1.3794,0.4008,88.25,88.33,644.0,1.93,6.44
01:25:00,5.2330,0.0093,1.3795,0.4009,88.26,88.34,643.0,0.05,6.43
01:25:10,5.1240,0.3536,1.3846,0.4018,88.58,88.56,642.0,1.81,6.42
01:25:20,4.5130,0.1554,1.3865,0.4023,88.70,88.65,644.0,0.7,6.44
01:25:30,5.2330,0.0088,1.3866,0.4023,88.71,88.66,645.0,0.05,6.45
01:25:40,5.0620,0.6819,1.3962,0.4042,89.33,89.07,643.0,3.45,6.43
01:25:50,4.8760,0.1739,1.3986,0.4047,89.48,89.18,643.0,0.85,6.43
01:26:00,5.2330,0.0092,1.3987,0.4047,89.49,89.19,643.0,0.05,6.43
01:26:10,4.7960,0.8827,1.4105,0.4071,90.24,89.73,642.0,4.23,6.42
01:26:20,5.2330,0.0085,1.4106,0.4072,90.25,89.73,641.0,0.04,6.41
01:26:30,5.2330,0.0093,1.4107,0.4072,90.25,89.74,640.0,0.05,6.4
01:26:40,2.4590,0.6535,1.4152,0.4090,90.54,90.14,641.0,1.61,6.41
01:26:50,5.2320,0.0090,1.4153,0.4090,90.55,90.14,641.0,0.05,6.41
01:27:00,5.2330,0.0093,1.4155,0.4091,90.56,90.15,646.0,0.05,6.46
01:27:10,2.4910,0.5192,1.4191,0.4105,90.79,90.47,643.0,1.29,6.43
01:27:20,5.2330,0.0093,1.4192,0.4105,90.80,90.47,643.0,0.05,6.43
01:27:30,5.2320,0.0376,1.4197,0.4106,90.83,90.50,641.0,0.2,6.41
01:27:40,3.2690,0.3547,1.4230,0.4116,91.04,90.71,640.0,1.16,6.4
01:27:50,5.2330,0.0092,1.4231,0.4116,91.05,90.72,639.0,0.05,6.39
01:28:00,3.6860,1.2969,1.4364,0.4152,91.89,91.51,641.0,4.78,6.41
01:28:10,0.6540,0.0000,1.4364,0.4152,91.89,91.51,643.0,0.0,6.43
01:28:20,5.2320,0.0736,1.4374,0.4155,91.96,91.56,642.0,0.39,6.42
01:28:30,3.6410,0.3207,1.4407,0.4163,92.17,91.75,641.0,1.17,6.41
01:28:40,5.2330,0.0092,1.4408,0.4164,92.18,91.76,643.0,0.05,6.43
01:28:50,5.1740,0.2443,1.4443,0.4170,92.40,91.91,641.0,1.26,6.41
01:29:00,4.1740,0.1988,1.4466,0.4176,92.55,92.03,641.0,0.83,6.41
01:29:10,5.2330,0.0087,1.4468,0.4176,92.56,92.04,641.0,0.05,6.41
01:29:20,2.8750,0.9655,1.4545,0.4203,93.05,92.63,641.0,2.78,6.41
01:29:30,5.2330,0.0093,1.4546,0.4203,93.06,92.63,644.0,0.05,6.44
01:29:40,5.2330,0.0093,1.4547,0.4204,93.07,92.64,640.0,0.05,6.4
01:29:50,2.5380,0.7229,1.4598,0.4224,93.40,93.08,642.0,1.83,6.42
01:30:00,5.2330,0.0087,1.4600,0.4224,93.40,93.09,643.0,0.05,6.43
01:30:10,5.2330,0.0092,1.4601,0.4224,93.41,93.09,641.0,0.05,6.41
01:30:20,2.4870,0.5178,1.4637,0.4239,93.64,93.41,642.0,1.29,6.42
01:30:30,5.2330,0.0093,1.4638,0.4239,93.65,93.41,643.0,0.05,6.43
01:30:40,4.2470,1.1128,1.4769,0.4270,94.49,94.10,644.0,4.73,6.44
01:30:50,5.2320,0.0092,1.4771,0.4270,94.50,94.10,646.0,0.05,6.46
01:31:00,5.2330,0.0092,1.4772,0.4270,94.51,94.11,646.0,0.05,6.46
01:31:10,3.3240,1.2133,1.4884,0.4304,95.22,94.85,650.0,4.03,6.5
01:31:20,5.2320,0.0093,1.4885,0.4304,95.23,94.86,652.0,0.05,6.52
01:31:30,5.2330,0.0092,1.4887,0.4304,95.24,94.86,654.0,0.05,6.54
01:31:40,2.5900,0.8105,1.4945,0.4327,95.61,95.36,654.0,2.1,6.54
01:31:50,5.2330,0.0085,1.4946,0.4327,95.62,95.36,655.0,0.04,6.55
01:32:00,5.0260,0.7522,1.5051,0.4348,96.29,95.82,658.0,3.78,6.58
01:32:10,5.2320,0.0083,1.5052,0.4348,96.30,95.83,661.0,0.04,6.61
01:32:20,5.2330,0.0093,1.5054,0.4349,96.31,95.83,664.0,0.05,6.64
01:32:30,2.3960,0.5188,1.5088,0.4363,96.53,96.15,665.0,1.24,6.65
01:32:40,5.2330,0.0093,1.5090,0.4363,96.54,96.16,666.0,0.05,6.66
01:32:50,5.2300,0.0425,1.5096,0.4364,96.58,96.18,668.0,0.22,6.68
01:33:00,3.4470,0.3276,1.5127,0.4374,96.78,96.38,670.0,1.13,6.7
01:33:10,0.5270,0.0000,1.5127,0.4374,96.78,96.38,669.0,0.0,6.69
01:33:20,5.2330,0.0093,1.5129,0.4374,96.79,96.39,672.0,0.05,6.72
01:33:30,5.2330,0.0087,1.5130,0.4374,96.80,96.39,674.0,0.05,6.74
01:33:40,5.2330,0.0093,1.5131,0.4374,96.81,96.40,672.0,0.05,6.72
01:33:50,3.5690,1.2788,1.5258,0.4410,97.62,97.18,674.0,4.56,6.74
01:34:00,5.2330,0.0093,1.5259,0.4410,97.63,97.19,669.0,0.05,6.69
01:34:10,5.2330,0.0089,1.5261,0.4410,97.63,97.19,669.0,0.05,6.69
01:34:20,2.6330,0.8143,1.5320,0.4433,98.01,97.69,671.0,2.14,6.71
01:34:30,5.2330,0.0094,1.5322,0.4433,98.02,97.70,664.0,0.05,6.64
01:34:40,5.2330,0.0093,1.5323,0.4433,98.03,97.70,660.0,0.05,6.6
01:34:50,2.4890,0.6323,1.5367,0.4451,98.31,98.09,658.0,1.57,6.58
01:35:00,2.9180,1.6330,1.5499,0.4496,99.16,99.09,532.0,4.77,5.32
01:35:10,2.7680,1.1700,1.5589,0.4529,99.73,99.81,198.2,3.24,1.982
01:35:20,5.2320,0.0093,1.5590,0.4529,99.74,99.81,231.0,0.05,2.31
01:35:30,5.2320,0.0092,1.5592,0.4529,99.75,99.82,109.8,0.05,1.098
01:35:40,4.4110,0.1388,1.5609,0.4533,99.86,99.90,106.3,0.61,1.063
01:35:50,5.2330,0.0093,1.5610,0.4533,99.87,99.91,104.5,0.05,1.045
01:36:00,5.2330,0.0093,1.5611,0.4534,99.88,99.91,102.2,0.05,1.022
01:36:10,5.0370,0.0341,1.5616,0.4535,99.91,99.94,99.6,0.17,0.996
01:36:20,5.2330,0.0090,1.5617,0.4535,99.92,99.94,96.8,0.05,0.968
01:36:30,4.8310,0.0874,1.5629,0.4537,99.99,99.99,94.0,0.42,0.94
01:36:40,5.2330,0.0092,1.5631,0.4538,100.00,100.00,91.4,0.05,0.914
01:36:50,2.1350,0.1029,1.5637,0.4540,100.04,100.06,90.9,0.22,0.909