File: output/6/rynotuff-3.csv
Time,Voltage(V),Current(A),Energy(Wh),Capacity(Ah),Energy Proportion(%),Capacity Proportion(%),Irradiance(W/m2),Power(W),Sunlight Level
00:00:00,2.1700,0.8005,0.0048,0.0022,0.08,0.11,445.0,1.74,4.45
00:00:10,2.9730,0.6051,0.0098,0.0039,0.16,0.20,228.0,1.8,2.28
00:00:20,2.7730,1.3791,0.0204,0.0077,0.33,0.40,307.0,3.82,3.07
00:00:30,2.6970,0.9765,0.0278,0.0104,0.45,0.54,593.0,2.63,5.93
00:00:40,5.3410,0.0092,0.0279,0.0105,0.45,0.54,233.0,0.05,2.33
00:00:50,3.0120,2.3861,0.0479,0.0171,0.78,0.88,752.0,7.19,7.52
00:01:00,2.9440,2.0436,0.0646,0.0228,1.05,1.17,753.0,6.02,7.53
00:01:10,2.4630,0.6723,0.0692,0.0246,1.13,1.27,490.0,1.66,4.9
00:01:20,2.3490,0.4706,0.0722,0.0260,1.18,1.33,172.9,1.11,1.729
00:01:30,2.3530,0.4755,0.0754,0.0273,1.23,1.40,174.5,1.12,1.745
00:01:40,2.3580,0.4855,0.0785,0.0286,1.28,1.47,177.3,1.14,1.773
00:01:50,2.3660,0.4814,0.0817,0.0300,1.33,1.54,181.7,1.14,1.817
00:02:00,2.3690,0.5099,0.0851,0.0314,1.39,1.61,185.1,1.21,1.851
00:02:10,2.3750,0.5124,0.0884,0.0328,1.44,1.69,195.6,1.22,1.956
00:02:20,2.3770,0.5257,0.0919,0.0343,1.50,1.76,191.1,1.25,1.911
00:02:30,2.4040,0.5829,0.0958,0.0359,1.56,1.84,200.0,1.4,2.0
00:02:40,2.6460,0.8666,0.1022,0.0383,1.67,1.97,301.0,2.29,3.01
00:02:50,2.7970,1.5538,0.1142,0.0426,1.86,2.19,486.0,4.35,4.86
00:03:00,2.9410,2.0362,0.1309,0.0483,2.13,2.48,594.0,5.99,5.94
00:03:10,2.9980,2.3243,0.1502,0.0547,2.45,2.81,707.0,6.97,7.07
00:03:20,2.9790,2.3280,0.1695,0.0612,2.76,3.14,762.0,6.94,7.62
00:03:30,2.9960,2.3980,0.1894,0.0678,3.09,3.49,751.0,7.18,7.51
00:03:40,3.0230,2.4432,0.2100,0.0746,3.42,3.84,775.0,7.39,7.75
00:03:50,3.0740,2.4558,0.2309,0.0815,3.77,4.19,785.0,7.55,7.85
00:04:00,3.0400,2.4580,0.2517,0.0883,4.10,4.54,784.0,7.47,7.84
00:04:10,3.0370,2.4550,0.2724,0.0951,4.44,4.89,784.0,7.46,7.84
00:04:20,3.0480,2.4629,0.2933,0.1019,4.78,5.24,784.0,7.51,7.84
00:04:30,3.0670,2.4723,0.3143,0.1088,5.13,5.59,787.0,7.58,7.87
00:04:40,3.0770,2.4767,0.3355,0.1157,5.47,5.95,789.0,7.62,7.89
00:04:50,3.2080,2.4828,0.3576,0.1226,5.83,6.30,791.0,7.96,7.91
00:05:00,3.2150,2.4960,0.3799,0.1295,6.19,6.66,796.0,8.02,7.96
00:05:10,3.2390,2.5094,0.4025,0.1365,6.56,7.02,801.0,8.13,8.01
00:05:20,3.0400,2.4010,0.4228,0.1432,6.89,7.36,802.0,7.3,8.02
00:05:30,2.9370,2.2922,0.4415,0.1495,7.20,7.69,699.0,6.73,6.99
00:05:40,2.9410,2.3696,0.4608,0.1561,7.51,8.02,782.0,6.97,7.82
00:05:50,2.4350,0.6917,0.4655,0.1580,7.59,8.12,450.0,1.68,4.5
00:06:00,2.8620,1.9334,0.4809,0.1634,7.84,8.40,447.0,5.53,4.47
00:06:10,3.0720,2.4693,0.5019,0.1703,8.18,8.75,758.0,7.59,7.58
00:06:20,3.0320,2.3972,0.5221,0.1769,8.51,9.09,792.0,7.27,7.92
00:06:30,2.9200,2.2519,0.5404,0.1832,8.81,9.41,738.0,6.58,7.38
00:06:40,2.8320,1.8125,0.5546,0.1882,9.04,9.67,667.0,5.13,6.67
00:06:50,2.3060,0.4797,0.5577,0.1895,9.09,9.74,224.0,1.11,2.24
00:07:00,2.3130,0.4826,0.5608,0.1909,9.14,9.81,192.5,1.12,1.925
00:07:10,2.3200,0.4727,0.5639,0.1922,9.19,9.88,189.0,1.1,1.89
00:07:20,2.3210,0.4727,0.5669,0.1935,9.24,9.95,186.0,1.1,1.86
00:07:30,2.3240,0.4670,0.5699,0.1948,9.29,10.01,181.5,1.09,1.815
00:07:40,2.3260,0.4657,0.5729,0.1961,9.34,10.08,177.8,1.08,1.778
00:07:50,2.3290,0.4795,0.5760,0.1974,9.39,10.15,178.0,1.12,1.78
00:08:00,2.3370,0.4781,0.5791,0.1988,9.44,10.22,179.0,1.12,1.79
00:08:10,2.3560,0.5001,0.5824,0.2001,9.50,10.29,193.0,1.18,1.93
00:08:20,2.3680,0.5175,0.5858,0.2016,9.55,10.36,192.8,1.23,1.928
00:08:30,2.6520,0.8328,0.5920,0.2039,9.65,10.48,278.0,2.21,2.78
00:08:40,2.8580,0.9736,0.5997,0.2066,9.78,10.62,397.0,2.78,3.97
00:08:50,2.6880,0.8647,0.6061,0.2090,9.88,10.74,375.0,2.32,3.75
00:09:00,2.8590,1.8999,0.6212,0.2143,10.13,11.01,481.0,5.43,4.81
00:09:10,2.8240,1.7482,0.6349,0.2191,10.35,11.26,599.0,4.94,5.99
00:09:20,3.0150,2.4335,0.6553,0.2259,10.69,11.61,753.0,7.34,7.53
00:09:30,3.0080,2.4285,0.6756,0.2326,11.02,11.96,778.0,7.3,7.78
00:09:40,2.9800,2.4082,0.6955,0.2393,11.34,12.30,774.0,7.18,7.74
00:09:50,5.3340,0.0093,0.6957,0.2394,11.34,12.30,766.0,0.05,7.66
00:10:00,2.9560,2.3843,0.7153,0.2460,11.66,12.64,764.0,7.05,7.64
00:10:10,2.9470,2.3745,0.7347,0.2526,11.98,12.98,760.0,7.0,7.6
00:10:20,2.9370,2.3687,0.7540,0.2592,12.29,13.32,755.0,6.96,7.55
00:10:30,5.3330,0.0091,0.7542,0.2592,12.30,13.32,754.0,0.05,7.54
00:10:40,2.9330,2.3657,0.7734,0.2658,12.61,13.66,754.0,6.94,7.54
00:10:50,2.6410,2.0529,0.7885,0.2715,12.86,13.95,751.0,5.42,7.51
00:11:00,2.9380,2.3683,0.8078,0.2780,13.17,14.29,752.0,6.96,7.52
00:11:10,5.3330,0.0092,0.8080,0.2781,13.17,14.29,752.0,0.05,7.52
00:11:20,2.9370,2.3685,0.8273,0.2846,13.49,14.63,753.0,6.96,7.53
00:11:30,2.9420,2.3722,0.8467,0.2912,13.81,14.97,753.0,6.98,7.53
00:11:40,2.9460,2.3714,0.8661,0.2978,14.12,15.31,753.0,6.99,7.53
00:11:50,2.9360,2.3678,0.8854,0.3044,14.44,15.65,750.0,6.95,7.5
00:12:00,2.9350,2.3606,0.9046,0.3109,14.75,15.98,751.0,6.93,7.51
00:12:10,2.9410,2.3549,0.9239,0.3175,15.06,16.32,750.0,6.93,7.5
00:12:20,2.9430,2.3546,0.9431,0.3240,15.38,16.65,747.0,6.93,7.47
00:12:30,2.9380,2.3504,0.9623,0.3306,15.69,16.99,746.0,6.91,7.46
00:12:40,2.9310,2.3477,0.9814,0.3371,16.00,17.33,746.0,6.88,7.46
00:12:50,2.9190,2.3425,1.0004,0.3436,16.31,17.66,741.0,6.84,7.41
00:13:00,2.9230,2.3420,1.0194,0.3501,16.62,17.99,743.0,6.85,7.43
00:13:10,2.9140,2.3378,1.0383,0.3566,16.93,18.33,742.0,6.81,7.42
00:13:20,2.9130,2.3373,1.0573,0.3631,17.24,18.66,740.0,6.81,7.4
00:13:30,5.3320,0.0092,1.0574,0.3631,17.24,18.66,739.0,0.05,7.39
00:13:40,4.0320,2.0169,1.0800,0.3687,17.61,18.95,738.0,8.13,7.38
00:13:50,2.9230,2.3460,1.0990,0.3752,17.92,19.29,742.0,6.86,7.42
00:14:00,2.5780,1.5363,1.1100,0.3795,18.10,19.51,745.0,3.96,7.45
00:14:10,3.4530,2.2846,1.1319,0.3858,18.46,19.83,744.0,7.89,7.44
00:14:20,2.9320,2.3581,1.1512,0.3924,18.77,20.17,744.0,6.91,7.44
00:14:30,4.3850,1.6218,1.1709,0.3969,19.09,20.40,751.0,7.11,7.51
00:14:40,2.9480,2.3708,1.1903,0.4035,19.41,20.74,749.0,6.99,7.49
00:14:50,2.9670,2.3742,1.2099,0.4101,19.73,21.08,750.0,7.04,7.5
00:15:00,3.7370,0.6864,1.2170,0.4120,19.84,21.18,753.0,2.57,7.53
00:15:10,2.9620,2.3828,1.2366,0.4186,20.16,21.52,753.0,7.06,7.53
00:15:20,5.3320,0.0093,1.2368,0.4186,20.17,21.52,757.0,0.05,7.57
00:15:30,2.9710,2.3915,1.2565,0.4253,20.49,21.86,758.0,7.11,7.58
00:15:40,2.9860,2.3960,1.2764,0.4319,20.81,22.20,760.0,7.15,7.6
00:15:50,5.3320,0.0092,1.2765,0.4319,20.81,22.20,760.0,0.05,7.6
00:16:00,2.7780,1.5080,1.2881,0.4361,21.00,22.42,761.0,4.19,7.61
00:16:10,2.9790,2.3965,1.3080,0.4428,21.33,22.76,758.0,7.14,7.58
00:16:20,2.9830,2.3952,1.3278,0.4494,21.65,23.10,757.0,7.14,7.57
00:16:30,5.3320,0.0092,1.3280,0.4495,21.65,23.10,758.0,0.05,7.58
00:16:40,5.3310,0.0093,1.3281,0.4495,21.65,23.10,761.0,0.05,7.61
00:16:50,3.0020,2.4130,1.3482,0.4562,21.98,23.45,762.0,7.24,7.62
00:17:00,3.0050,2.4195,1.3684,0.4629,22.31,23.79,763.0,7.27,7.63
00:17:10,3.0160,2.4232,1.3887,0.4697,22.64,24.14,768.0,7.31,7.68
00:17:20,3.0350,2.4267,1.4092,0.4764,22.98,24.49,770.0,7.37,7.7
00:17:30,3.3360,2.4044,1.4315,0.4831,23.34,24.83,770.0,8.02,7.7
00:17:40,5.2050,0.6991,1.4416,0.4850,23.50,24.93,770.0,3.64,7.7
00:17:50,5.3320,0.0093,1.4417,0.4850,23.51,24.93,768.0,0.05,7.68
00:18:00,5.3310,0.0093,1.4418,0.4851,23.51,24.93,769.0,0.05,7.69
00:18:10,5.3320,0.0093,1.4420,0.4851,23.51,24.93,767.0,0.05,7.67
00:18:20,5.3310,0.0092,1.4421,0.4851,23.51,24.93,762.0,0.05,7.62
00:18:30,5.3310,0.0091,1.4422,0.4851,23.52,24.94,766.0,0.05,7.66
00:18:40,2.8990,1.4479,1.4539,0.4892,23.71,25.14,763.0,4.2,7.63
00:18:50,2.7900,1.5861,1.4662,0.4936,23.91,25.37,761.0,4.43,7.61
00:19:00,2.9970,2.4107,1.4863,0.5003,24.23,25.71,762.0,7.22,7.62
00:19:10,3.0000,2.4154,1.5064,0.5070,24.56,26.06,765.0,7.25,7.65
00:19:20,3.0040,2.4189,1.5266,0.5137,24.89,26.40,762.0,7.27,7.62
00:19:30,3.0170,2.4276,1.5469,0.5204,25.22,26.75,765.0,7.32,7.65
00:19:40,3.0360,2.4374,1.5675,0.5272,25.56,27.10,768.0,7.4,7.68
00:19:50,3.1610,2.4547,1.5890,0.5340,25.91,27.45,775.0,7.76,7.75
00:20:00,2.8080,1.6759,1.6021,0.5387,26.12,27.69,762.0,4.71,7.62
00:20:10,2.2870,0.4369,1.6049,0.5399,26.17,27.75,325.0,1.0,3.25
00:20:20,2.2570,0.3700,1.6072,0.5409,26.21,27.80,161.2,0.84,1.612
00:20:30,2.2570,0.3561,1.6094,0.5419,26.24,27.85,137.9,0.8,1.379
00:20:40,2.2570,0.3464,1.6116,0.5429,26.28,27.90,132.9,0.78,1.329
00:20:50,2.2590,0.3399,1.6137,0.5438,26.31,27.95,128.7,0.77,1.287
00:21:00,2.2610,0.3401,1.6159,0.5448,26.35,28.00,126.7,0.77,1.267
00:21:10,2.2630,0.3381,1.6180,0.5457,26.38,28.05,125.9,0.77,1.259
00:21:20,2.2640,0.3395,1.6201,0.5466,26.42,28.10,125.1,0.77,1.251
00:21:30,2.2650,0.3389,1.6223,0.5476,26.45,28.15,124.2,0.77,1.242
00:21:40,2.2660,0.3366,1.6244,0.5485,26.49,28.19,123.0,0.76,1.23
00:21:50,2.2690,0.3434,1.6265,0.5495,26.52,28.24,123.0,0.78,1.23
00:22:00,2.2720,0.3468,1.6287,0.5504,26.56,28.29,124.6,0.79,1.246
00:22:10,2.2730,0.3460,1.6309,0.5514,26.59,28.34,124.5,0.79,1.245
00:22:20,2.2740,0.3503,1.6331,0.5524,26.63,28.39,124.8,0.8,1.248
00:22:30,2.2760,0.3602,1.6354,0.5534,26.67,28.44,126.0,0.82,1.26
00:22:40,2.2820,0.3580,1.6377,0.5544,26.70,28.49,127.9,0.82,1.279
00:22:50,2.2870,0.3639,1.6400,0.5554,26.74,28.55,129.6,0.83,1.296
00:23:00,2.2900,0.3755,1.6424,0.5564,26.78,28.60,132.2,0.86,1.322
00:23:10,2.2930,0.3753,1.6448,0.5575,26.82,28.65,134.4,0.86,1.344
00:23:20,2.2990,0.3902,1.6473,0.5586,26.86,28.71,136.5,0.9,1.365
00:23:30,2.4780,0.6738,1.6519,0.5604,26.93,28.81,272.0,1.67,2.72
00:23:40,5.3370,0.0093,1.6520,0.5605,26.94,28.81,336.0,0.05,3.36
00:23:50,2.9780,2.3548,1.6715,0.5670,27.25,29.14,728.0,7.01,7.28
00:24:00,2.9940,2.3788,1.6913,0.5736,27.58,29.48,710.0,7.12,7.1
00:24:10,2.9430,2.1350,1.7088,0.5795,27.86,29.79,780.0,6.28,7.8
00:24:20,2.5080,0.7730,1.7141,0.5817,27.95,29.90,590.0,1.94,5.9
00:24:30,2.3310,0.4932,1.7173,0.5830,28.00,29.97,174.3,1.15,1.743
00:24:40,2.2940,0.4084,1.7199,0.5842,28.04,30.03,153.3,0.94,1.533
00:24:50,2.2870,0.3866,1.7224,0.5853,28.08,30.08,144.7,0.88,1.447
00:25:00,2.2840,0.3780,1.7248,0.5863,28.12,30.14,137.7,0.86,1.377
00:25:10,2.2860,0.3724,1.7272,0.5873,28.16,30.19,133.7,0.85,1.337
00:25:20,2.2900,0.3794,1.7296,0.5884,28.20,30.24,134.7,0.87,1.347
00:25:30,2.2970,0.3915,1.7321,0.5895,28.24,30.30,138.1,0.9,1.381
00:25:40,2.3080,0.4088,1.7347,0.5906,28.28,30.36,143.8,0.94,1.438
00:25:50,5.3390,0.0093,1.7348,0.5906,28.29,30.36,160.3,0.05,1.603
00:26:00,2.5090,0.7522,1.7401,0.5927,28.37,30.47,560.0,1.89,5.6
00:26:10,2.5110,0.7491,1.7453,0.5948,28.46,30.57,414.0,1.88,4.14
00:26:20,2.6220,0.8400,1.7514,0.5971,28.56,30.69,236.0,2.2,2.36
00:26:30,2.8760,1.8773,1.7664,0.6024,28.80,30.96,631.0,5.4,6.31
00:26:40,2.8950,1.9361,1.7820,0.6077,29.06,31.24,546.0,5.61,5.46
00:26:50,2.9770,2.2991,1.8010,0.6141,29.37,31.57,706.0,6.84,7.06
00:27:00,2.4690,0.7006,1.8058,0.6161,29.44,31.67,288.0,1.73,2.88
00:27:10,2.3190,0.4536,1.8087,0.6173,29.49,31.73,171.3,1.05,1.713
00:27:20,2.3800,0.5453,1.8123,0.6188,29.55,31.81,203.0,1.3,2.03
00:27:30,2.3970,0.5912,1.8163,0.6205,29.61,31.89,209.0,1.42,2.09
00:27:40,2.8760,1.8511,1.8310,0.6256,29.86,32.16,438.0,5.32,4.38
00:27:50,2.4260,0.6398,1.8354,0.6274,29.93,32.25,510.0,1.55,5.1
00:28:00,2.3350,0.4779,1.8385,0.6287,29.98,32.32,239.0,1.12,2.39
00:28:10,2.3150,0.4432,1.8413,0.6300,30.02,32.38,170.1,1.03,1.701
00:28:20,2.3130,0.4323,1.8441,0.6312,30.07,32.44,164.5,1.0,1.645
00:28:30,2.3130,0.4216,1.8468,0.6323,30.11,32.50,159.9,0.98,1.599
00:28:40,2.3120,0.4197,1.8495,0.6335,30.16,32.56,157.0,0.97,1.57
00:28:50,2.3130,0.4200,1.8522,0.6347,30.20,32.62,155.0,0.97,1.55
00:29:00,2.3130,0.4203,1.8549,0.6358,30.24,32.68,153.9,0.97,1.539
00:29:10,2.3150,0.4220,1.8576,0.6370,30.29,32.74,154.0,0.98,1.54
00:29:20,2.3160,0.4222,1.8603,0.6382,30.33,32.80,154.6,0.98,1.546
00:29:30,2.3170,0.4208,1.8630,0.6394,30.38,32.86,155.2,0.97,1.552
00:29:40,2.3190,0.4263,1.8658,0.6405,30.42,32.92,155.8,0.99,1.558
00:29:50,2.3200,0.4286,1.8685,0.6417,30.47,32.98,156.1,0.99,1.561
00:30:00,2.3210,0.4307,1.8713,0.6429,30.51,33.05,157.5,1.0,1.575
00:30:10,2.3230,0.4314,1.8741,0.6441,30.56,33.11,158.9,1.0,1.589
00:30:20,2.3250,0.4368,1.8769,0.6453,30.60,33.17,160.0,1.02,1.6
00:30:30,2.3280,0.4406,1.8798,0.6466,30.65,33.23,161.8,1.03,1.618
00:30:40,2.3330,0.4503,1.8827,0.6478,30.70,33.30,165.0,1.05,1.65
00:30:50,2.3400,0.4629,1.8857,0.6491,30.75,33.36,169.7,1.08,1.697
00:31:00,2.3470,0.4763,1.8888,0.6504,30.80,33.43,175.8,1.12,1.758
00:31:10,2.3560,0.4950,1.8920,0.6518,30.85,33.50,181.2,1.17,1.812
00:31:20,2.3690,0.5146,1.8954,0.6532,30.91,33.57,188.6,1.22,1.886
00:31:30,2.4100,0.5760,1.8993,0.6548,30.97,33.66,229.0,1.39,2.29
00:31:40,2.3800,0.5326,1.9028,0.6563,31.03,33.73,208.0,1.27,2.08
00:31:50,2.4650,0.6459,1.9072,0.6581,31.10,33.83,208.0,1.59,2.08
00:32:00,4.8660,0.6407,1.9159,0.6599,31.24,33.92,362.0,3.12,3.62
00:32:10,3.3050,2.5494,1.9393,0.6670,31.62,34.28,780.0,8.43,7.8
00:32:20,3.3570,2.5973,1.9635,0.6742,32.02,34.65,850.0,8.72,8.5
00:32:30,2.3700,0.5273,1.9670,0.6756,32.07,34.73,463.0,1.25,4.63
00:32:40,2.3460,0.5094,1.9703,0.6771,32.13,34.80,193.0,1.2,1.93
00:32:50,2.3490,0.4905,1.9735,0.6784,32.18,34.87,191.5,1.15,1.915
00:33:00,2.3540,0.4778,1.9766,0.6797,32.23,34.94,189.5,1.12,1.895
00:33:10,2.3500,0.5033,1.9799,0.6811,32.28,35.01,187.5,1.18,1.875
00:33:20,2.3520,0.4883,1.9831,0.6825,32.33,35.08,186.5,1.15,1.865
00:33:30,2.3560,0.4971,1.9864,0.6839,32.39,35.15,188.0,1.17,1.88
00:33:40,2.3580,0.5014,1.9896,0.6853,32.44,35.22,187.5,1.18,1.875
00:33:50,2.3600,0.5064,1.9930,0.6867,32.50,35.29,188.5,1.2,1.885
00:34:00,2.3630,0.5125,1.9963,0.6881,32.55,35.37,192.5,1.21,1.925
00:34:10,2.3650,0.5132,1.9997,0.6895,32.61,35.44,194.5,1.21,1.945
00:34:20,2.3670,0.5184,2.0031,0.6910,32.66,35.51,193.5,1.23,1.935
00:34:30,2.4260,0.6075,2.0072,0.6927,32.73,35.60,210.0,1.47,2.1
00:34:40,2.5210,0.7359,2.0123,0.6947,32.81,35.71,281.0,1.86,2.81
00:34:50,2.7750,0.9685,2.0198,0.6974,32.93,35.84,345.0,2.69,3.45
00:35:00,2.8770,1.8400,2.0345,0.7025,33.17,36.11,525.0,5.29,5.25
00:35:10,3.0570,2.4610,2.0554,0.7093,33.51,36.46,719.0,7.52,7.19
00:35:20,3.3620,2.6056,2.0797,0.7166,33.91,36.83,836.0,8.76,8.36
00:35:30,2.9380,2.1155,2.0970,0.7224,34.19,37.13,843.0,6.22,8.43
00:35:40,2.6430,0.8930,2.1036,0.7249,34.30,37.26,395.0,2.36,3.95
00:35:50,2.3470,0.5026,2.1068,0.7263,34.35,37.33,208.0,1.18,2.08
00:36:00,2.3400,0.4851,2.1100,0.7277,34.40,37.40,187.5,1.14,1.875
00:36:10,2.9680,2.2542,2.1286,0.7339,34.71,37.72,507.0,6.69,5.07
00:36:20,3.3280,2.5767,2.1524,0.7411,35.10,38.09,834.0,8.58,8.34
00:36:30,3.3260,2.5753,2.1762,0.7482,35.48,38.46,835.0,8.57,8.35
00:36:40,3.3000,2.5650,2.1997,0.7554,35.87,38.83,829.0,8.46,8.29
00:36:50,3.3340,2.5811,2.2236,0.7625,36.26,39.19,836.0,8.61,8.36
00:37:00,3.3600,2.5936,2.2478,0.7697,36.65,39.56,837.0,8.71,8.37
00:37:10,3.3490,2.5918,2.2719,0.7769,37.04,39.93,841.0,8.68,8.41
00:37:20,3.3620,2.5967,2.2962,0.7842,37.44,40.30,840.0,8.73,8.4
00:37:30,5.3340,0.1153,2.2979,0.7845,37.47,40.32,842.0,0.62,8.42
00:37:40,5.3350,0.0094,2.2980,0.7845,37.47,40.32,843.0,0.05,8.43
00:37:50,3.3670,2.6040,2.3224,0.7917,37.87,40.69,844.0,8.77,8.44
00:38:00,3.3690,2.6074,2.3468,0.7990,38.26,41.07,844.0,8.78,8.44
00:38:10,5.3340,0.0092,2.3469,0.7990,38.27,41.07,845.0,0.05,8.45
00:38:20,5.3350,0.0093,2.3471,0.7990,38.27,41.07,847.0,0.05,8.47
00:38:30,3.3960,2.6209,2.3718,0.8063,38.67,41.44,847.0,8.9,8.47
00:38:40,3.3870,2.6211,2.3964,0.8136,39.07,41.82,846.0,8.88,8.46
00:38:50,5.3340,0.0093,2.3966,0.8136,39.08,41.82,851.0,0.05,8.51
00:39:00,3.3890,2.6152,2.4212,0.8209,39.48,42.19,846.0,8.86,8.46
00:39:10,5.3340,0.0093,2.4213,0.8209,39.48,42.19,846.0,0.05,8.46
00:39:20,3.3410,2.6079,2.4455,0.8282,39.88,42.57,844.0,8.71,8.44
00:39:30,5.3340,0.0092,2.4457,0.8282,39.88,42.57,845.0,0.05,8.45
00:39:40,3.3660,2.6020,2.4700,0.8354,40.27,42.94,841.0,8.76,8.41
00:39:50,4.0780,2.4418,2.4977,0.8422,40.73,43.29,842.0,9.96,8.42
00:40:00,5.3340,0.0093,2.4978,0.8422,40.73,43.29,840.0,0.05,8.4
00:40:10,3.3640,2.6023,2.5221,0.8494,41.12,43.66,839.0,8.75,8.39
00:40:20,3.3740,2.5995,2.5465,0.8567,41.52,44.03,839.0,8.77,8.39
00:40:30,5.3330,0.0093,2.5466,0.8567,41.52,44.03,841.0,0.05,8.41
00:40:40,4.1170,0.6012,2.5535,0.8584,41.64,44.12,840.0,2.48,8.4
00:40:50,3.3650,2.6038,2.5778,0.8656,42.03,44.49,843.0,8.76,8.43
00:41:00,3.3750,2.6097,2.6023,0.8728,42.43,44.86,842.0,8.81,8.42
00:41:10,3.3830,2.6108,2.6268,0.8801,42.83,45.24,847.0,8.83,8.47
00:41:20,3.3900,2.6152,2.6515,0.8874,43.23,45.61,850.0,8.87,8.5
00:41:30,3.3860,2.6139,2.6760,0.8946,43.63,45.98,847.0,8.85,8.47
00:41:40,3.4040,2.6287,2.7009,0.9019,44.04,46.36,852.0,8.95,8.52
00:41:50,3.3650,2.6024,2.7252,0.9092,44.44,46.73,854.0,8.76,8.54
00:42:00,3.3910,2.6287,2.7500,0.9165,44.84,47.10,853.0,8.91,8.53
00:42:10,3.3520,2.6007,2.7742,0.9237,45.23,47.48,824.0,8.72,8.24
00:42:20,3.4140,1.4639,2.7881,0.9277,45.46,47.68,844.0,5.0,8.44
00:42:30,5.3320,0.0093,2.7882,0.9278,45.46,47.69,845.0,0.05,8.45
00:42:40,5.3320,0.0092,2.7884,0.9278,45.46,47.69,849.0,0.05,8.49
00:42:50,5.3320,0.0092,2.7885,0.9278,45.47,47.69,827.0,0.05,8.27
00:43:00,2.8090,1.3674,2.7992,0.9316,45.64,47.88,611.0,3.84,6.11
00:43:10,3.0260,2.3207,2.8187,0.9381,45.96,48.22,797.0,7.02,7.97
00:43:20,2.9250,1.8820,2.8340,0.9433,46.21,48.48,699.0,5.5,6.99
00:43:30,2.9740,2.1152,2.8514,0.9492,46.49,48.79,647.0,6.29,6.47
00:43:40,3.7770,2.5396,2.8781,0.9562,46.93,49.15,835.0,9.59,8.35
00:43:50,4.7960,0.4984,2.8847,0.9576,47.04,49.22,842.0,2.39,8.42
00:44:00,5.3320,0.0341,2.8852,0.9577,47.04,49.22,842.0,0.18,8.42
00:44:10,3.3480,2.5841,2.9093,0.9649,47.44,49.59,842.0,8.65,8.42
00:44:20,5.2760,0.3283,2.9141,0.9658,47.51,49.64,836.0,1.73,8.36
00:44:30,5.3320,0.0092,2.9142,0.9658,47.52,49.64,833.0,0.05,8.33
00:44:40,3.3400,2.5812,2.9382,0.9730,47.91,50.01,834.0,8.62,8.34
00:44:50,3.1380,1.6938,2.9529,0.9777,48.15,50.25,831.0,5.32,8.31
00:45:00,5.3320,0.0093,2.9531,0.9777,48.15,50.25,831.0,0.05,8.31
00:45:10,3.6190,2.5293,2.9785,0.9847,48.56,50.61,828.0,9.15,8.28
00:45:20,3.2960,2.5606,3.0019,0.9919,48.95,50.98,827.0,8.44,8.27
00:45:30,3.8150,0.6745,3.0091,0.9937,49.06,51.08,825.0,2.57,8.25
00:45:40,5.3320,0.0092,3.0092,0.9938,49.07,51.08,823.0,0.05,8.23
00:45:50,4.0650,2.2516,3.0346,1.0000,49.48,51.40,821.0,9.15,8.21
00:46:00,3.2570,2.5311,3.0575,1.0070,49.85,51.76,819.0,8.24,8.19
00:46:10,3.2430,2.5257,3.0803,1.0141,50.22,52.12,816.0,8.19,8.16
00:46:20,3.4130,1.1983,3.0916,1.0174,50.41,52.29,814.0,4.09,8.14
00:46:30,5.3320,0.0093,3.0918,1.0174,50.41,52.29,812.0,0.05,8.12
00:46:40,5.3320,0.0092,3.0919,1.0174,50.41,52.30,814.0,0.05,8.14
00:46:50,5.0820,1.1753,3.1085,1.0207,50.69,52.46,816.0,5.97,8.16
00:47:00,3.2840,2.5440,3.1317,1.0278,51.06,52.83,816.0,8.35,8.16
00:47:10,3.2770,2.5488,3.1549,1.0348,51.44,53.19,825.0,8.35,8.25
00:47:20,5.3320,0.0093,3.1551,1.0349,51.44,53.19,826.0,0.05,8.26
00:47:30,5.1280,1.0853,3.1705,1.0379,51.70,53.35,834.0,5.57,8.34
00:47:40,3.3910,2.6207,3.1952,1.0452,52.10,53.72,845.0,8.89,8.45
00:47:50,5.3320,0.0093,3.1953,1.0452,52.10,53.72,843.0,0.05,8.43
00:48:00,3.0430,2.3037,3.2148,1.0516,52.42,54.05,493.0,7.01,4.93
00:48:10,3.5650,2.6091,3.2407,1.0588,52.84,54.42,765.0,9.3,7.65
00:48:20,5.3320,0.0092,3.2408,1.0589,52.84,54.42,853.0,0.05,8.53
00:48:30,2.4580,0.6503,3.2452,1.0607,52.91,54.52,680.0,1.6,6.8
00:48:40,2.4690,0.6699,3.2498,1.0625,52.99,54.61,546.0,1.65,5.46
00:48:50,2.3340,0.4098,3.2525,1.0637,53.03,54.67,190.0,0.96,1.9
00:49:00,2.3560,0.4634,3.2555,1.0650,53.08,54.74,177.7,1.09,1.777
00:49:10,2.3800,0.5149,3.2589,1.0664,53.14,54.81,192.7,1.23,1.927
00:49:20,2.6360,0.8767,3.2653,1.0688,53.24,54.94,189.5,2.31,1.895
00:49:30,2.4080,0.5355,3.2689,1.0703,53.30,55.01,449.0,1.29,4.49
00:49:40,3.3790,0.8811,3.2772,1.0728,53.44,55.14,195.0,2.98,1.95
00:49:50,3.3430,2.5712,3.3011,1.0799,53.82,55.51,856.0,8.6,8.56
00:50:00,3.0180,2.2655,3.3201,1.0862,54.13,55.83,714.0,6.84,7.14
00:50:10,2.5810,0.7975,3.3258,1.0884,54.23,55.94,349.0,2.06,3.49
00:50:20,2.9970,2.2649,3.3446,1.0947,54.54,56.27,684.0,6.79,6.84
00:50:30,2.3380,0.4549,3.3476,1.0960,54.58,56.33,343.0,1.06,3.43
00:50:40,2.3420,0.4602,3.3506,1.0972,54.63,56.40,190.0,1.08,1.9
00:50:50,2.3480,0.4719,3.3537,1.0986,54.68,56.46,310.0,1.11,3.1
00:51:00,2.4530,0.6384,3.3580,1.1003,54.75,56.56,230.0,1.57,2.3
00:51:10,2.3240,0.4204,3.3607,1.1015,54.80,56.62,172.8,0.98,1.728
00:51:20,2.3170,0.4018,3.3633,1.1026,54.84,56.67,163.0,0.93,1.63
00:51:30,2.3140,0.3934,3.3658,1.1037,54.88,56.73,156.0,0.91,1.56
00:51:40,2.3100,0.3851,3.3683,1.1048,54.92,56.78,150.7,0.89,1.507
00:51:50,2.3080,0.3801,3.3707,1.1058,54.96,56.84,146.3,0.88,1.463
00:52:00,2.3070,0.3767,3.3732,1.1069,55.00,56.89,143.9,0.87,1.439
00:52:10,2.3100,0.3722,3.3755,1.1079,55.04,56.95,143.6,0.86,1.436
00:52:20,2.3130,0.3849,3.3780,1.1090,55.08,57.00,145.5,0.89,1.455
00:52:30,2.3200,0.3983,3.3806,1.1101,55.12,57.06,149.7,0.92,1.497
00:52:40,2.3890,0.5389,3.3842,1.1116,55.18,57.13,159.3,1.29,1.593
00:52:50,2.9390,2.0793,3.4011,1.1174,55.46,57.43,443.0,6.11,4.43
00:53:00,3.6970,0.9952,3.4114,1.1201,55.62,57.57,470.0,3.68,4.7
00:53:10,2.7670,1.3550,3.4218,1.1239,55.79,57.77,342.0,3.75,3.42
00:53:20,2.8710,1.7099,3.4354,1.1286,56.02,58.01,625.0,4.91,6.25
00:53:30,2.8250,1.5196,3.4473,1.1329,56.21,58.23,526.0,4.29,5.26
00:53:40,3.1250,2.5012,3.4690,1.1398,56.56,58.58,737.0,7.82,7.37
00:53:50,2.5910,0.8544,3.4752,1.1422,56.66,58.71,659.0,2.21,6.59
00:54:00,2.8410,1.6182,3.4880,1.1467,56.87,58.94,481.0,4.6,4.81
00:54:10,2.8320,1.5629,3.5003,1.1510,57.07,59.16,386.0,4.43,3.86
00:54:20,5.3370,0.0081,3.5004,1.1510,57.07,59.16,357.0,0.04,3.57
00:54:30,2.9740,2.2006,3.5186,1.1572,57.37,59.48,622.0,6.54,6.22
00:54:40,2.8600,1.8186,3.5330,1.1622,57.61,59.74,371.0,5.2,3.71
00:54:50,3.0720,2.4780,3.5542,1.1691,57.95,60.09,666.0,7.61,6.66
00:55:00,3.1800,2.4870,3.5761,1.1760,58.31,60.44,804.0,7.91,8.04
00:55:10,3.1900,2.4902,3.5982,1.1829,58.67,60.80,804.0,7.94,8.04
00:55:20,3.1900,2.4878,3.6202,1.1898,59.03,61.16,804.0,7.94,8.04
00:55:30,3.2090,2.4940,3.6425,1.1967,59.39,61.51,805.0,8.0,8.05
00:55:40,3.8570,0.6762,3.6497,1.1986,59.51,61.61,806.0,2.61,8.06
00:55:50,3.1910,2.4892,3.6718,1.2055,59.87,61.96,806.0,7.94,8.06
00:56:00,3.1720,2.4804,3.6936,1.2124,60.23,62.32,804.0,7.87,8.04
00:56:10,3.1590,2.4702,3.7153,1.2193,60.58,62.67,799.0,7.8,7.99
00:56:20,3.1480,2.4669,3.7369,1.2261,60.93,63.02,797.0,7.77,7.97
00:56:30,3.1630,2.4724,3.7586,1.2330,61.28,63.38,795.0,7.82,7.95
00:56:40,3.1670,2.4748,3.7804,1.2399,61.64,63.73,797.0,7.84,7.97
00:56:50,3.1590,2.4737,3.8021,1.2468,61.99,64.08,797.0,7.81,7.97
00:57:00,5.3330,0.0093,3.8022,1.2468,62.00,64.08,793.0,0.05,7.93
00:57:10,3.1610,2.4716,3.8239,1.2537,62.35,64.44,792.0,7.81,7.92
00:57:20,3.1640,2.4710,3.8456,1.2605,62.70,64.79,796.0,7.82,7.96
00:57:30,5.3320,0.0093,3.8458,1.2605,62.71,64.79,797.0,0.05,7.97
00:57:40,3.1610,2.4733,3.8675,1.2674,63.06,65.14,794.0,7.82,7.94
00:57:50,5.3320,0.0092,3.8676,1.2674,63.06,65.14,791.0,0.05,7.91
00:58:00,3.1570,2.4673,3.8893,1.2743,63.42,65.50,793.0,7.79,7.93
00:58:10,5.3320,0.0092,3.8894,1.2743,63.42,65.50,793.0,0.05,7.93
00:58:20,3.1450,2.4625,3.9109,1.2812,63.77,65.85,790.0,7.74,7.9
00:58:30,5.3320,0.0092,3.9110,1.2812,63.77,65.85,791.0,0.05,7.91
00:58:40,3.1430,2.4621,3.9325,1.2880,64.12,66.20,792.0,7.74,7.92
00:58:50,3.1420,2.4616,3.9540,1.2949,64.47,66.55,793.0,7.73,7.93
00:59:00,5.3320,0.0092,3.9542,1.2949,64.47,66.56,792.0,0.05,7.92
00:59:10,3.1370,2.4603,3.9756,1.3017,64.82,66.91,788.0,7.72,7.88
00:59:20,3.1580,2.4640,3.9972,1.3086,65.18,67.26,789.0,7.78,7.89
00:59:30,5.3320,0.0092,3.9974,1.3086,65.18,67.26,791.0,0.05,7.91
00:59:40,2.9070,2.2173,4.0153,1.3147,65.47,67.58,793.0,6.45,7.93
00:59:50,3.1440,2.4643,4.0368,1.3216,65.82,67.93,792.0,7.75,7.92
01:00:00,3.1660,2.4726,4.0585,1.3285,66.18,68.28,792.0,7.83,7.92
01:00:10,5.1980,0.7226,4.0690,1.3305,66.35,68.38,793.0,3.76,7.93
01:00:20,5.3320,0.0092,4.0691,1.3305,66.35,68.39,797.0,0.05,7.97
01:00:30,5.3320,0.0092,4.0692,1.3305,66.35,68.39,802.0,0.05,8.02
01:00:40,5.3320,0.0092,4.0694,1.3305,66.35,68.39,803.0,0.05,8.03
01:00:50,5.3320,0.0093,4.0695,1.3306,66.35,68.39,808.0,0.05,8.08
01:01:00,5.3300,0.0591,4.0704,1.3307,66.37,68.40,812.0,0.32,8.12
01:01:10,4.1440,2.1788,4.0955,1.3368,66.78,68.71,816.0,9.03,8.16
01:01:20,3.2790,2.5430,4.1186,1.3439,67.16,69.07,818.0,8.34,8.18
01:01:30,3.3000,2.5579,4.1421,1.3510,67.54,69.44,826.0,8.44,8.26
01:01:40,5.3310,0.0091,4.1422,1.3510,67.54,69.44,826.0,0.05,8.26
01:01:50,5.2250,0.5993,4.1509,1.3526,67.68,69.52,828.0,3.13,8.28
01:02:00,3.3270,2.5759,4.1747,1.3598,68.07,69.89,824.0,8.57,8.24
01:02:10,3.0480,2.3738,4.1948,1.3664,68.40,70.23,837.0,7.24,8.37
01:02:20,2.2950,0.3265,4.1969,1.3673,68.43,70.28,441.0,0.75,4.41
01:02:30,2.2940,0.3206,4.1989,1.3682,68.46,70.32,127.0,0.74,1.27
01:02:40,2.2930,0.3213,4.2010,1.3691,68.50,70.37,121.8,0.74,1.218
01:02:50,2.2920,0.3123,4.2030,1.3700,68.53,70.41,117.6,0.72,1.176
01:03:00,2.2930,0.3115,4.2049,1.3708,68.56,70.46,115.8,0.71,1.158
01:03:10,2.2940,0.3150,4.2070,1.3717,68.60,70.50,115.4,0.72,1.154
01:03:20,2.2950,0.3171,4.2090,1.3726,68.63,70.55,115.5,0.73,1.155
01:03:30,2.2970,0.3171,4.2110,1.3735,68.66,70.59,116.4,0.73,1.164
01:03:40,2.2990,0.3256,4.2131,1.3744,68.70,70.64,118.3,0.75,1.183
01:03:50,2.3020,0.3248,4.2152,1.3753,68.73,70.69,121.1,0.75,1.211
01:04:00,2.3060,0.3426,4.2173,1.3762,68.76,70.74,124.5,0.79,1.245
01:04:10,2.3100,0.3495,4.2196,1.3772,68.80,70.79,127.9,0.81,1.279
01:04:20,2.3140,0.3594,4.2219,1.3782,68.84,70.84,131.0,0.83,1.31
01:04:30,2.3400,0.4192,4.2246,1.3793,68.88,70.90,138.0,0.98,1.38
01:04:40,2.3270,0.3914,4.2272,1.3804,68.92,70.95,148.1,0.91,1.481
01:04:50,2.3300,0.3998,4.2297,1.3815,68.97,71.01,169.0,0.93,1.69
01:05:00,2.3500,0.4476,4.2327,1.3828,69.01,71.07,246.0,1.05,2.46
01:05:10,2.3140,0.3618,4.2350,1.3838,69.05,71.13,135.3,0.84,1.353
01:05:20,2.3120,0.3538,4.2373,1.3848,69.09,71.18,131.8,0.82,1.318
01:05:30,2.3130,0.3563,4.2396,1.3858,69.13,71.23,132.5,0.82,1.325
01:05:40,2.3170,0.3685,4.2419,1.3868,69.17,71.28,133.0,0.85,1.33
01:05:50,2.3240,0.3814,4.2444,1.3878,69.21,71.33,142.2,0.89,1.422
01:06:00,2.3390,0.4152,4.2471,1.3890,69.25,71.39,146.1,0.97,1.461
01:06:10,2.4040,0.5736,4.2509,1.3906,69.31,71.48,210.0,1.38,2.1
01:06:20,2.4550,0.6502,4.2553,1.3924,69.38,71.57,224.0,1.6,2.24
01:06:30,2.8220,1.4843,4.2670,1.3965,69.57,71.78,403.0,4.19,4.03
01:06:40,2.8640,1.6215,4.2799,1.4010,69.78,72.01,488.0,4.64,4.88
01:06:50,2.3350,0.4309,4.2827,1.4022,69.83,72.07,546.0,1.01,5.46
01:07:00,2.3130,0.3752,4.2851,1.4033,69.87,72.13,140.9,0.87,1.409
01:07:10,2.3090,0.3614,4.2874,1.4043,69.91,72.18,136.0,0.83,1.36
01:07:20,2.3060,0.3542,4.2897,1.4053,69.94,72.23,131.2,0.82,1.312
01:07:30,2.3050,0.3539,4.2919,1.4062,69.98,72.28,127.5,0.82,1.275
01:07:40,2.3050,0.3365,4.2941,1.4072,70.02,72.33,123.5,0.78,1.235
01:07:50,2.3070,0.3317,4.2962,1.4081,70.05,72.37,121.4,0.77,1.214
01:08:00,2.3040,0.3448,4.2984,1.4091,70.09,72.42,120.5,0.79,1.205
01:08:10,2.3050,0.3320,4.3006,1.4100,70.12,72.47,120.3,0.77,1.203
01:08:20,2.3060,0.3451,4.3028,1.4109,70.16,72.52,121.8,0.8,1.218
01:08:30,2.3070,0.3416,4.3050,1.4119,70.19,72.57,121.3,0.79,1.213
01:08:40,2.3070,0.3455,4.3072,1.4128,70.23,72.62,121.0,0.8,1.21
01:08:50,2.3080,0.3328,4.3093,1.4138,70.26,72.67,120.4,0.77,1.204
01:09:00,2.3080,0.3294,4.3114,1.4147,70.30,72.71,118.7,0.76,1.187
01:09:10,2.3070,0.3395,4.3136,1.4156,70.33,72.76,116.9,0.78,1.169
01:09:20,2.3070,0.3232,4.3157,1.4165,70.37,72.81,115.0,0.75,1.15
01:09:30,2.3070,0.3270,4.3178,1.4174,70.40,72.85,113.3,0.75,1.133
01:09:40,2.3090,0.3351,4.3199,1.4184,70.44,72.90,113.4,0.77,1.134
01:09:50,2.3100,0.3413,4.3221,1.4193,70.47,72.95,115.5,0.79,1.155
01:10:00,2.3160,0.3511,4.3244,1.4203,70.51,73.00,121.1,0.81,1.211
01:10:10,2.3310,0.3895,4.3269,1.4214,70.55,73.06,136.3,0.91,1.363
01:10:20,2.3380,0.4049,4.3295,1.4225,70.59,73.11,143.9,0.95,1.439
01:10:30,2.3450,0.4244,4.3323,1.4237,70.64,73.18,152.3,1.0,1.523
01:10:40,2.3400,0.4116,4.3349,1.4248,70.68,73.23,155.0,0.96,1.55
01:10:50,2.3340,0.3989,4.3375,1.4259,70.72,73.29,148.9,0.93,1.489
01:11:00,2.3310,0.3897,4.3401,1.4270,70.77,73.35,138.9,0.91,1.389
01:11:10,2.3360,0.4068,4.3427,1.4281,70.81,73.40,137.3,0.95,1.373
01:11:20,2.6040,0.8698,4.3490,1.4306,70.91,73.53,246.0,2.26,2.46
01:11:30,2.9900,2.1542,4.3669,1.4365,71.20,73.84,547.0,6.44,5.47
01:11:40,2.9630,2.0638,4.3839,1.4423,71.48,74.13,709.0,6.12,7.09
01:11:50,2.9290,1.9104,4.3994,1.4476,71.73,74.40,717.0,5.6,7.17
01:12:00,2.9720,2.1217,4.4169,1.4535,72.02,74.71,760.0,6.31,7.6
01:12:10,3.0240,2.3433,4.4366,1.4600,72.34,75.04,684.0,7.09,6.84
01:12:20,3.0980,2.4384,4.4576,1.4668,72.68,75.39,808.0,7.55,8.08
01:12:30,3.0730,2.4603,4.4786,1.4736,73.02,75.74,800.0,7.56,8.0
01:12:40,3.3500,2.5981,4.5028,1.4808,73.42,76.11,847.0,8.7,8.47
01:12:50,3.3390,2.5882,4.5268,1.4880,73.81,76.48,851.0,8.64,8.51
01:13:00,3.3050,2.5678,4.5503,1.4951,74.19,76.85,844.0,8.49,8.44
01:13:10,3.2940,2.5524,4.5737,1.5022,74.58,77.21,840.0,8.41,8.4
01:13:20,3.2610,2.5387,4.5967,1.5093,74.95,77.57,835.0,8.28,8.35
01:13:30,3.2610,2.5385,4.6197,1.5163,75.33,77.94,833.0,8.28,8.33
01:13:40,5.3350,0.0093,4.6198,1.5163,75.33,77.94,833.0,0.05,8.33
01:13:50,3.2730,2.5425,4.6429,1.5234,75.70,78.30,833.0,8.32,8.33
01:14:00,3.2790,2.5425,4.6661,1.5305,76.08,78.66,833.0,8.34,8.33
01:14:10,5.3340,0.0092,4.6662,1.5305,76.08,78.67,833.0,0.05,8.33
01:14:20,4.9940,0.5040,4.6732,1.5319,76.20,78.74,830.0,2.52,8.3
01:14:30,3.2590,2.5337,4.6962,1.5389,76.57,79.10,829.0,8.26,8.29
01:14:40,5.3340,0.0093,4.6963,1.5390,76.57,79.10,827.0,0.05,8.27
01:14:50,5.3340,0.0093,4.6964,1.5390,76.58,79.10,826.0,0.05,8.26
01:15:00,3.2780,2.5394,4.7196,1.5460,76.95,79.46,833.0,8.32,8.33
01:15:10,3.2780,2.5482,4.7428,1.5531,77.33,79.83,829.0,8.35,8.29
01:15:20,5.3340,0.0093,4.7429,1.5531,77.33,79.83,836.0,0.05,8.36
01:15:30,3.2740,2.5455,4.7661,1.5602,77.71,80.19,829.0,8.33,8.29
01:15:40,5.3330,0.0094,4.7662,1.5602,77.71,80.19,832.0,0.05,8.32
01:15:50,3.2880,2.5508,4.7895,1.5673,78.09,80.56,829.0,8.39,8.29
01:16:00,5.3330,0.0092,4.7896,1.5673,78.10,80.56,827.0,0.05,8.27
01:16:10,2.8180,1.6930,4.8029,1.5721,78.31,80.80,829.0,4.77,8.29
01:16:20,3.3020,2.5579,4.8263,1.5792,78.69,81.17,832.0,8.45,8.32
01:16:30,3.3200,2.5592,4.8499,1.5863,79.08,81.53,832.0,8.5,8.32
01:16:40,5.3320,0.1025,4.8515,1.5866,79.10,81.55,828.0,0.55,8.28
01:16:50,5.3320,0.0093,4.8516,1.5866,79.11,81.55,828.0,0.05,8.28
01:17:00,5.3320,0.0089,4.8517,1.5866,79.11,81.55,833.0,0.05,8.33
01:17:10,2.6530,1.7597,4.8647,1.5915,79.32,81.80,830.0,4.67,8.3
01:17:20,3.3040,2.5588,4.8882,1.5986,79.70,82.17,828.0,8.45,8.28
01:17:30,3.2930,2.5597,4.9116,1.6057,80.08,82.53,828.0,8.43,8.28
01:17:40,3.3010,2.5595,4.9351,1.6128,80.47,82.90,828.0,8.45,8.28
01:17:50,3.3010,2.5609,4.9586,1.6199,80.85,83.26,830.0,8.45,8.3
01:18:00,3.3080,2.5637,4.9821,1.6271,81.23,83.63,830.0,8.48,8.3
01:18:10,3.3060,2.5662,5.0057,1.6342,81.62,84.00,832.0,8.48,8.32
01:18:20,3.3130,2.5654,5.0293,1.6413,82.00,84.36,833.0,8.5,8.33
01:18:30,4.6670,0.6026,5.0371,1.6430,82.13,84.45,833.0,2.81,8.33
01:18:40,5.3320,0.0092,5.0372,1.6430,82.13,84.45,829.0,0.05,8.29
01:18:50,5.3320,0.0092,5.0374,1.6430,82.14,84.45,835.0,0.05,8.35
01:19:00,4.0970,2.3450,5.0641,1.6495,82.57,84.78,831.0,9.61,8.31
01:19:10,3.3050,2.5614,5.0876,1.6567,82.95,85.15,829.0,8.47,8.29
01:19:20,3.3050,2.5592,5.1111,1.6638,83.34,85.52,831.0,8.46,8.31
01:19:30,3.5870,0.9717,5.1208,1.6665,83.50,85.65,832.0,3.49,8.32
01:19:40,5.3320,0.0093,5.1209,1.6665,83.50,85.66,831.0,0.05,8.31
01:19:50,5.3310,0.1017,5.1224,1.6668,83.52,85.67,827.0,0.54,8.27
01:20:00,3.3060,2.5568,5.1459,1.6739,83.90,86.04,831.0,8.45,8.31
01:20:10,3.3010,2.5580,5.1693,1.6810,84.29,86.40,833.0,8.44,8.33
01:20:20,5.3320,0.0093,5.1695,1.6810,84.29,86.40,828.0,0.05,8.28
01:20:30,5.3300,0.0900,5.1708,1.6813,84.31,86.41,827.0,0.48,8.27
01:20:40,3.3080,2.5619,5.1943,1.6884,84.70,86.78,829.0,8.47,8.29
01:20:50,3.6740,0.9767,5.2043,1.6911,84.86,86.92,828.0,3.59,8.28
01:21:00,5.3310,0.0367,5.2049,1.6912,84.87,86.93,829.0,0.2,8.29
01:21:10,3.2930,2.5526,5.2282,1.6983,85.25,87.29,827.0,8.41,8.27
01:21:20,3.8260,0.6931,5.2356,1.7002,85.37,87.39,826.0,2.65,8.26
01:21:30,5.3320,0.0093,5.2357,1.7002,85.37,87.39,825.0,0.05,8.25
01:21:40,3.3030,2.5524,5.2591,1.7073,85.75,87.75,823.0,8.43,8.23
01:21:50,3.2760,2.5482,5.2823,1.7144,86.13,88.12,825.0,8.35,8.25
01:22:00,5.3310,0.0092,5.2824,1.7144,86.13,88.12,821.0,0.05,8.21
01:22:10,4.7770,1.6249,5.3040,1.7189,86.48,88.35,821.0,7.76,8.21
01:22:20,3.2750,2.5434,5.3271,1.7260,86.86,88.71,822.0,8.33,8.22
01:22:30,5.2870,0.1892,5.3299,1.7265,86.91,88.74,821.0,1.0,8.21
01:22:40,5.3310,0.0093,5.3301,1.7266,86.91,88.74,822.0,0.05,8.22
01:22:50,3.2830,2.5456,5.3533,1.7336,87.29,89.11,821.0,8.36,8.21
01:23:00,3.6450,0.9707,5.3631,1.7363,87.45,89.25,824.0,3.54,8.24
01:23:10,5.3320,0.0092,5.3632,1.7364,87.45,89.25,821.0,0.05,8.21
01:23:20,3.2900,2.5506,5.3866,1.7434,87.83,89.61,825.0,8.39,8.25
01:23:30,2.6830,1.7559,5.3996,1.7483,88.04,89.86,825.0,4.71,8.25
01:23:40,5.3320,0.0090,5.3998,1.7483,88.04,89.86,825.0,0.05,8.25
01:23:50,3.7150,2.5023,5.4256,1.7553,88.47,90.22,826.0,9.3,8.26
01:24:00,3.3020,2.5629,5.4491,1.7624,88.85,90.59,828.0,8.46,8.28
01:24:10,5.3310,0.0093,5.4492,1.7624,88.85,90.59,830.0,0.05,8.3
01:24:20,5.1790,0.7558,5.4601,1.7645,89.03,90.70,830.0,3.91,8.3
01:24:30,3.3360,2.5824,5.4840,1.7717,89.42,91.06,836.0,8.61,8.36
01:24:40,5.3320,0.0093,5.4842,1.7717,89.42,91.07,841.0,0.05,8.41
01:24:50,4.5340,1.9367,5.5086,1.7771,89.82,91.34,842.0,8.78,8.42
01:25:00,3.3570,2.5967,5.5328,1.7843,90.21,91.71,845.0,8.72,8.45
01:25:10,5.3320,0.0093,5.5329,1.7844,90.22,91.71,843.0,0.05,8.43
01:25:20,3.3800,2.6083,5.5574,1.7916,90.62,92.09,846.0,8.82,8.46
01:25:30,5.3320,0.0092,5.5575,1.7916,90.62,92.09,848.0,0.05,8.48
01:25:40,3.3830,2.6129,5.5821,1.7989,91.02,92.46,851.0,8.84,8.51
01:25:50,5.3320,0.0092,5.5822,1.7989,91.02,92.46,852.0,0.05,8.52
01:26:00,3.4090,2.6298,5.6071,1.8062,91.43,92.84,856.0,8.96,8.56
01:26:10,5.3320,0.0092,5.6073,1.8062,91.43,92.84,860.0,0.05,8.6
01:26:20,3.4200,2.6369,5.6323,1.8136,91.84,93.21,860.0,9.02,8.6
01:26:30,5.1620,0.8621,5.6447,1.8160,92.04,93.34,865.0,4.45,8.65
01:26:40,5.3310,0.0093,5.6448,1.8160,92.04,93.34,868.0,0.05,8.68
01:26:50,3.3890,2.6173,5.6695,1.8233,92.44,93.71,868.0,8.87,8.68
01:27:00,5.3310,0.0092,5.6696,1.8233,92.44,93.71,870.0,0.05,8.7
01:27:10,5.3310,0.0093,5.6697,1.8233,92.45,93.72,885.0,0.05,8.85
01:27:20,3.0540,1.9393,5.6862,1.8287,92.71,93.99,886.0,5.92,8.86
01:27:30,3.5330,2.7124,5.7128,1.8362,93.15,94.38,885.0,9.58,8.85
01:27:40,3.6050,2.7259,5.7401,1.8438,93.59,94.77,895.0,9.83,8.95
01:27:50,4.7670,1.9661,5.7661,1.8493,94.02,95.05,899.0,9.37,8.99
01:28:00,4.5110,2.2326,5.7941,1.8555,94.47,95.37,899.0,10.07,8.99
01:28:10,5.3290,0.1494,5.7963,1.8559,94.51,95.39,898.0,0.8,8.98
01:28:20,5.3320,0.0093,5.7965,1.8559,94.51,95.39,891.0,0.05,8.91
01:28:30,5.3310,0.0093,5.7966,1.8559,94.52,95.39,891.0,0.05,8.91
01:28:40,2.9350,2.1832,5.8144,1.8620,94.81,95.70,887.0,6.41,8.87
01:28:50,3.5150,2.6959,5.8407,1.8695,95.23,96.09,884.0,9.48,8.84
01:29:00,5.1380,0.9679,5.8545,1.8722,95.46,96.23,884.0,4.97,8.84
01:29:10,5.3320,0.0092,5.8547,1.8722,95.46,96.23,881.0,0.05,8.81
01:29:20,5.3210,0.0090,5.8548,1.8722,95.46,96.23,877.0,0.05,8.77
01:29:30,3.4800,2.6768,5.8807,1.8797,95.89,96.61,879.0,9.32,8.79
01:29:40,4.1410,2.4930,5.9094,1.8866,96.35,96.97,876.0,10.32,8.76
01:29:50,5.3320,0.0092,5.9095,1.8866,96.36,96.97,878.0,0.05,8.78
01:30:00,5.3310,0.0093,5.9096,1.8866,96.36,96.97,877.0,0.05,8.77
01:30:10,3.2910,2.3500,5.9311,1.8932,96.71,97.31,881.0,7.73,8.81
01:30:20,3.4920,2.6824,5.9571,1.9006,97.13,97.69,882.0,9.37,8.82
01:30:30,4.1300,2.4781,5.9856,1.9075,97.60,98.04,877.0,10.23,8.77
01:30:40,5.3310,0.0092,5.9857,1.9075,97.60,98.04,877.0,0.05,8.77
01:30:50,5.3310,0.0093,5.9858,1.9075,97.60,98.05,873.0,0.05,8.73
01:31:00,3.8790,0.9585,5.9962,1.9102,97.77,98.18,875.0,3.72,8.75
01:31:10,3.4690,2.6703,6.0219,1.9176,98.19,98.56,875.0,9.26,8.75
01:31:20,4.9160,1.5661,6.0433,1.9220,98.54,98.79,870.0,7.7,8.7
01:31:30,5.3310,0.0092,6.0434,1.9220,98.54,98.79,869.0,0.05,8.69
01:31:40,5.3150,0.1462,6.0456,1.9224,98.57,98.81,869.0,0.78,8.69
01:31:50,3.4540,2.6620,6.0711,1.9298,98.99,99.19,866.0,9.19,8.66
01:32:00,4.6550,1.9177,6.0959,1.9351,99.40,99.46,868.0,8.93,8.68
01:32:10,5.3320,0.0093,6.0961,1.9352,99.40,99.46,867.0,0.05,8.67
01:32:20,3.7640,1.0788,6.1073,1.9381,99.58,99.62,863.0,4.06,8.63
01:32:30,3.4450,2.6521,6.1327,1.9455,100.00,100.00,866.0,9.14,8.66
01:32:40,5.3310,0.0093,6.1329,1.9455,100.00,100.00,865.0,0.05,8.65
01:32:50,5.3310,0.0091,6.1330,1.9456,100.00,100.00,862.0,0.05,8.62
01:33:00,3.4450,2.6468,6.1583,1.9529,100.41,100.38,872.0,9.12,8.72