File: output/4/aeiusny-2.csv
Time,Voltage(V),Current(A),Energy(Wh),Capacity(Ah),Energy Proportion(%),Capacity Proportion(%),Irradiance(W/m2),Irradiance/100,Power(W),Efficiency(%),Power Score,Sun Score,Efficiency Score
00:00:00,4.6410,1.9902,0.0257,0.0055,100.00,2.58,793,7.93,9.24,0.71,79.3,88.0,-8.7
00:00:10,0.0000,0.2577,0.0257,0.0062,100.00,2.92,790,7.9,0.0,0.0,79.0,0.0,79.0
00:00:20,0.0000,0.2396,0.0257,0.0069,100.00,3.23,789,7.89,0.0,0.0,78.9,0.0,78.9
00:00:30,0.0000,0.2468,0.0257,0.0076,100.00,3.55,788,7.88,0.0,0.0,78.8,0.0,78.8
00:00:40,0.0000,0.1926,0.0257,0.0081,100.00,3.80,790,7.9,0.0,0.0,79.0,0.0,79.0
00:00:50,0.0000,0.2234,0.0257,0.0088,100.00,4.09,786,7.86,0.0,0.0,78.6,0.0,78.6
00:01:00,0.0000,0.2014,0.0257,0.0093,100.00,4.35,787,7.87,0.0,0.0,78.7,0.0,78.7
00:01:10,0.0000,0.1865,0.0257,0.0098,100.00,4.59,786,7.86,0.0,0.0,78.6,0.0,78.6
00:01:20,0.0000,0.1981,0.0257,0.0104,100.00,4.85,789,7.89,0.0,0.0,78.9,0.0,78.9
00:01:30,0.0000,0.2187,0.0257,0.0110,100.00,5.13,787,7.87,0.0,0.0,78.7,0.0,78.7
00:01:40,0.0000,0.1869,0.0257,0.0115,100.00,5.37,787,7.87,0.0,0.0,78.7,0.0,78.7
00:01:50,0.0000,0.1823,0.0257,0.0120,100.00,5.61,788,7.88,0.0,0.0,78.8,0.0,78.8
00:02:00,0.0000,0.1921,0.0257,0.0125,100.00,5.86,787,7.87,0.0,0.0,78.7,0.0,78.7
00:02:10,0.0000,0.2490,0.0257,0.0132,100.00,6.18,786,7.86,0.0,0.0,78.6,0.0,78.6
00:02:20,0.0000,0.2283,0.0257,0.0139,100.00,6.48,785,7.85,0.0,0.0,78.5,0.0,78.5
00:02:30,0.0000,0.2616,0.0257,0.0146,100.00,6.82,786,7.86,0.0,0.0,78.6,0.0,78.6
00:02:40,0.0000,0.1232,0.0257,0.0149,100.00,6.98,788,7.88,0.0,0.0,78.8,0.0,78.8
00:02:50,0.0000,0.3132,0.0257,0.0158,100.00,7.39,785,7.85,0.0,0.0,78.5,0.0,78.5
00:03:00,0.0000,0.1420,0.0257,0.0162,100.00,7.57,786,7.86,0.0,0.0,78.6,0.0,78.6
00:03:10,0.0000,0.1084,0.0257,0.0165,100.00,7.71,788,7.88,0.0,0.0,78.8,0.0,78.8
00:03:20,0.0000,0.2681,0.0257,0.0173,100.00,8.06,783,7.83,0.0,0.0,78.3,0.0,78.3
00:03:30,0.0000,0.2255,0.0257,0.0179,100.00,8.35,779,7.79,0.0,0.0,77.9,0.0,77.9
00:03:40,0.0000,0.2196,0.0257,0.0185,100.00,8.64,781,7.81,0.0,0.0,78.1,0.0,78.1
00:03:50,0.0000,0.3300,0.0257,0.0194,100.00,9.06,784,7.84,0.0,0.0,78.4,0.0,78.4
00:04:00,0.0000,0.0001,0.0257,0.0194,100.00,9.06,789,7.89,0.0,0.0,78.9,0.0,78.9
00:04:10,0.0000,0.0002,0.0257,0.0194,100.00,9.06,793,7.93,0.0,0.0,79.3,0.0,79.3
00:04:20,0.0000,0.0086,0.0257,0.0194,100.00,9.08,793,7.93,0.0,0.0,79.3,0.0,79.3
00:04:30,0.0000,0.2650,0.0257,0.0202,100.00,9.42,794,7.94,0.0,0.0,79.4,0.0,79.4
00:04:40,0.0000,0.1892,0.0257,0.0207,100.00,9.67,786,7.86,0.0,0.0,78.6,0.0,78.6
00:04:50,0.0000,0.0882,0.0257,0.0209,100.00,9.78,789,7.89,0.0,0.0,78.9,0.0,78.9
00:05:00,0.0000,0.1177,0.0257,0.0213,100.00,9.93,788,7.88,0.0,0.0,78.8,0.0,78.8
00:05:10,0.0000,0.1371,0.0257,0.0216,100.00,10.11,787,7.87,0.0,0.0,78.7,0.0,78.7
00:05:20,0.0000,0.1887,0.0257,0.0222,100.00,10.36,785,7.85,0.0,0.0,78.5,0.0,78.5
00:05:30,0.0000,0.1809,0.0257,0.0227,100.00,10.59,783,7.83,0.0,0.0,78.3,0.0,78.3
00:05:40,0.0000,0.1691,0.0257,0.0231,100.00,10.81,788,7.88,0.0,0.0,78.8,0.0,78.8
00:05:50,0.0000,0.2111,0.0257,0.0237,100.00,11.08,793,7.93,0.0,0.0,79.3,0.0,79.3
00:06:00,0.0000,0.1918,0.0257,0.0243,100.00,11.33,791,7.91,0.0,0.0,79.1,0.0,79.1
00:06:10,0.0000,0.1756,0.0257,0.0247,100.00,11.56,794,7.94,0.0,0.0,79.4,0.0,79.4
00:06:20,0.0000,0.2275,0.0257,0.0254,100.00,11.86,791,7.91,0.0,0.0,79.1,0.0,79.1
00:06:30,0.0000,0.1602,0.0257,0.0258,100.00,12.06,790,7.9,0.0,0.0,79.0,0.0,79.0
00:06:40,0.0000,0.1391,0.0257,0.0262,100.00,12.24,792,7.92,0.0,0.0,79.2,0.0,79.2
00:06:50,0.0000,0.1767,0.0257,0.0267,100.00,12.47,794,7.94,0.0,0.0,79.4,0.0,79.4
00:07:00,0.0000,0.1990,0.0257,0.0273,100.00,12.73,796,7.96,0.0,0.0,79.6,0.0,79.6
00:07:10,0.0000,0.1572,0.0257,0.0277,100.00,12.94,796,7.96,0.0,0.0,79.6,0.0,79.6
00:07:20,0.0000,0.2030,0.0257,0.0283,100.00,13.20,789,7.89,0.0,0.0,78.9,0.0,78.9
00:07:30,0.0000,0.1827,0.0257,0.0288,100.00,13.44,792,7.92,0.0,0.0,79.2,0.0,79.2
00:07:40,0.0000,0.1434,0.0257,0.0292,100.00,13.62,794,7.94,0.0,0.0,79.4,0.0,79.4
00:07:50,0.0000,0.2153,0.0257,0.0298,100.00,13.90,796,7.96,0.0,0.0,79.6,0.0,79.6
00:08:00,0.0000,0.1908,0.0257,0.0303,100.00,14.15,799,7.99,0.0,0.0,79.9,0.0,79.9
00:08:10,0.0000,0.1569,0.0257,0.0307,100.00,14.35,800,8.0,0.0,0.0,80.0,0.0,80.0
00:08:20,0.0000,0.1609,0.0257,0.0312,100.00,14.56,802,8.02,0.0,0.0,80.2,0.0,80.2
00:08:30,0.0000,0.1850,0.0257,0.0317,100.00,14.80,806,8.06,0.0,0.0,80.6,0.0,80.6
00:08:40,0.0000,0.1663,0.0257,0.0321,100.00,15.02,804,8.04,0.0,0.0,80.4,0.0,80.4
00:08:50,0.0000,0.1468,0.0257,0.0326,100.00,15.21,804,8.04,0.0,0.0,80.4,0.0,80.4
00:09:00,0.0000,0.1542,0.0257,0.0330,100.00,15.41,800,8.0,0.0,0.0,80.0,0.0,80.0
00:09:10,0.0000,0.1398,0.0257,0.0334,100.00,15.59,800,8.0,0.0,0.0,80.0,0.0,80.0
00:09:20,0.0000,0.1581,0.0257,0.0338,100.00,15.79,799,7.99,0.0,0.0,79.9,0.0,79.9
00:09:30,0.0000,0.1388,0.0257,0.0342,100.00,15.97,797,7.97,0.0,0.0,79.7,0.0,79.7
00:09:40,0.0000,0.1284,0.0257,0.0346,100.00,16.14,798,7.98,0.0,0.0,79.8,0.0,79.8
00:09:50,0.0000,0.1351,0.0257,0.0349,100.00,16.32,800,8.0,0.0,0.0,80.0,0.0,80.0
00:10:00,0.0000,0.1661,0.0257,0.0354,100.00,16.53,802,8.02,0.0,0.0,80.2,0.0,80.2
00:10:10,0.0000,0.1303,0.0257,0.0358,100.00,16.70,803,8.03,0.0,0.0,80.3,0.0,80.3
00:10:20,0.0000,0.2060,0.0257,0.0363,100.00,16.97,803,8.03,0.0,0.0,80.3,0.0,80.3
00:10:30,0.0000,0.1195,0.0257,0.0367,100.00,17.12,803,8.03,0.0,0.0,80.3,0.0,80.3
00:10:40,0.0000,0.2162,0.0257,0.0373,100.00,17.40,804,8.04,0.0,0.0,80.4,0.0,80.4
00:10:50,0.0000,0.1341,0.0257,0.0376,100.00,17.58,802,8.02,0.0,0.0,80.2,0.0,80.2
00:11:00,0.0000,0.1586,0.0257,0.0381,100.00,17.78,801,8.01,0.0,0.0,80.1,0.0,80.1
00:11:10,0.0000,0.1322,0.0257,0.0384,100.00,17.96,798,7.98,0.0,0.0,79.8,0.0,79.8
00:11:20,0.0000,0.1640,0.0257,0.0389,100.00,18.17,789,7.89,0.0,0.0,78.9,0.0,78.9
00:11:30,0.0000,0.1471,0.0257,0.0393,100.00,18.36,800,8.0,0.0,0.0,80.0,0.0,80.0
00:11:40,0.0000,0.1474,0.0257,0.0397,100.00,18.55,801,8.01,0.0,0.0,80.1,0.0,80.1
00:11:50,0.0000,0.1493,0.0257,0.0401,100.00,18.74,802,8.02,0.0,0.0,80.2,0.0,80.2
00:12:00,0.0000,0.1426,0.0257,0.0405,100.00,18.93,803,8.03,0.0,0.0,80.3,0.0,80.3
00:12:10,0.0000,0.1739,0.0257,0.0410,100.00,19.16,807,8.07,0.0,0.0,80.7,0.0,80.7
00:12:20,0.0000,0.1560,0.0257,0.0414,100.00,19.36,810,8.1,0.0,0.0,81.0,0.0,81.0
00:12:30,0.0000,0.1362,0.0257,0.0418,100.00,19.53,813,8.13,0.0,0.0,81.3,0.0,81.3
00:12:40,0.0000,0.1548,0.0257,0.0422,100.00,19.74,811,8.11,0.0,0.0,81.1,0.0,81.1
00:12:50,0.0000,0.1294,0.0257,0.0426,100.00,19.90,810,8.1,0.0,0.0,81.0,0.0,81.0
00:13:00,0.0000,0.1360,0.0257,0.0430,100.00,20.08,812,8.12,0.0,0.0,81.2,0.0,81.2
00:13:10,0.0000,0.1264,0.0257,0.0433,100.00,20.24,812,8.12,0.0,0.0,81.2,0.0,81.2
00:13:20,0.0000,0.1283,0.0257,0.0437,100.00,20.41,815,8.15,0.0,0.0,81.5,0.0,81.5
00:13:30,0.0000,0.1391,0.0257,0.0441,100.00,20.59,819,8.19,0.0,0.0,81.9,0.0,81.9
00:13:40,0.0000,0.1215,0.0257,0.0444,100.00,20.75,822,8.22,0.0,0.0,82.2,0.0,82.2
00:13:50,0.0000,0.1201,0.0257,0.0447,100.00,20.90,820,8.2,0.0,0.0,82.0,0.0,82.0
00:14:00,0.0000,0.1254,0.0257,0.0451,100.00,21.07,815,8.15,0.0,0.0,81.5,0.0,81.5
00:14:10,0.0000,0.1325,0.0257,0.0455,100.00,21.24,819,8.19,0.0,0.0,81.9,0.0,81.9
00:14:20,0.0000,0.1320,0.0257,0.0458,100.00,21.41,819,8.19,0.0,0.0,81.9,0.0,81.9
00:14:30,0.0000,0.1329,0.0257,0.0462,100.00,21.58,689,6.89,0.0,0.0,68.9,0.0,68.9
00:14:40,0.0000,0.1307,0.0257,0.0466,100.00,21.75,766,7.66,0.0,0.0,76.6,0.0,76.6
00:14:50,0.0000,0.1430,0.0257,0.0470,100.00,21.94,735,7.35,0.0,0.0,73.5,0.0,73.5
00:15:00,0.0000,0.1482,0.0257,0.0474,100.00,22.13,797,7.97,0.0,0.0,79.7,0.0,79.7
00:15:10,0.0000,0.1190,0.0257,0.0477,100.00,22.28,791,7.91,0.0,0.0,79.1,0.0,79.1
00:15:20,0.0000,0.1177,0.0257,0.0480,100.00,22.44,797,7.97,0.0,0.0,79.7,0.0,79.7
00:15:30,0.0000,0.1163,0.0257,0.0484,100.00,22.59,795,7.95,0.0,0.0,79.5,0.0,79.5
00:15:40,0.0000,0.1293,0.0257,0.0487,100.00,22.76,795,7.95,0.0,0.0,79.5,0.0,79.5
00:15:50,0.0000,0.1468,0.0257,0.0491,100.00,22.95,795,7.95,0.0,0.0,79.5,0.0,79.5
00:16:00,0.0000,0.1147,0.0257,0.0494,100.00,23.10,795,7.95,0.0,0.0,79.5,0.0,79.5
00:16:10,0.0000,0.1836,0.0257,0.0499,100.00,23.33,796,7.96,0.0,0.0,79.6,0.0,79.6
00:16:20,0.0000,0.1601,0.0257,0.0504,100.00,23.54,795,7.95,0.0,0.0,79.5,0.0,79.5
00:16:30,0.0000,0.1397,0.0257,0.0508,100.00,23.72,795,7.95,0.0,0.0,79.5,0.0,79.5
00:16:40,0.0000,0.1500,0.0257,0.0512,100.00,23.92,795,7.95,0.0,0.0,79.5,0.0,79.5
00:16:50,0.0000,0.1521,0.0257,0.0516,100.00,24.11,794,7.94,0.0,0.0,79.4,0.0,79.4
00:17:00,0.0000,0.1541,0.0257,0.0520,100.00,24.31,791,7.91,0.0,0.0,79.1,0.0,79.1
00:17:10,0.0000,0.2048,0.0257,0.0526,100.00,24.58,792,7.92,0.0,0.0,79.2,0.0,79.2
00:17:20,0.0000,0.1246,0.0257,0.0530,100.00,24.74,793,7.93,0.0,0.0,79.3,0.0,79.3
00:17:30,0.0000,0.1579,0.0257,0.0534,100.00,24.95,796,7.96,0.0,0.0,79.6,0.0,79.6
00:17:40,0.0000,0.1277,0.0257,0.0538,100.00,25.11,792,7.92,0.0,0.0,79.2,0.0,79.2
00:17:50,0.0000,0.1722,0.0257,0.0542,100.00,25.34,794,7.94,0.0,0.0,79.4,0.0,79.4
00:18:00,0.0000,0.1475,0.0257,0.0546,100.00,25.53,790,7.9,0.0,0.0,79.0,0.0,79.0
00:18:10,0.0000,0.1408,0.0257,0.0550,100.00,25.71,791,7.91,0.0,0.0,79.1,0.0,79.1
00:18:20,0.0000,0.1670,0.0257,0.0555,100.00,25.93,788,7.88,0.0,0.0,78.8,0.0,78.8
00:18:30,0.0000,0.1613,0.0257,0.0559,100.00,26.14,792,7.92,0.0,0.0,79.2,0.0,79.2
00:18:40,0.0000,0.1562,0.0257,0.0564,100.00,26.34,793,7.93,0.0,0.0,79.3,0.0,79.3
00:18:50,0.0000,0.1131,0.0257,0.0567,100.00,26.49,790,7.9,0.0,0.0,79.0,0.0,79.0
00:19:00,0.0000,0.1557,0.0257,0.0571,100.00,26.69,792,7.92,0.0,0.0,79.2,0.0,79.2
00:19:10,0.0000,0.1113,0.0257,0.0574,100.00,26.83,792,7.92,0.0,0.0,79.2,0.0,79.2
00:19:20,0.0000,0.1706,0.0257,0.0579,100.00,27.05,794,7.94,0.0,0.0,79.4,0.0,79.4
00:19:30,0.0000,0.1219,0.0257,0.0582,100.00,27.21,794,7.94,0.0,0.0,79.4,0.0,79.4
00:19:40,0.0000,0.1515,0.0257,0.0587,100.00,27.41,795,7.95,0.0,0.0,79.5,0.0,79.5
00:19:50,0.0000,0.1911,0.0257,0.0592,100.00,27.66,796,7.96,0.0,0.0,79.6,0.0,79.6
00:20:00,0.0000,0.1359,0.0257,0.0596,100.00,27.83,797,7.97,0.0,0.0,79.7,0.0,79.7
00:20:10,0.0000,0.1252,0.0257,0.0599,100.00,28.00,797,7.97,0.0,0.0,79.7,0.0,79.7
00:20:20,0.0000,0.1204,0.0257,0.0603,100.00,28.15,800,8.0,0.0,0.0,80.0,0.0,80.0
00:20:30,0.0000,0.1878,0.0257,0.0608,100.00,28.40,799,7.99,0.0,0.0,79.9,0.0,79.9
00:20:40,0.0000,0.1238,0.0257,0.0611,100.00,28.56,802,8.02,0.0,0.0,80.2,0.0,80.2
00:20:50,0.0000,0.1408,0.0257,0.0615,100.00,28.74,806,8.06,0.0,0.0,80.6,0.0,80.6
00:21:00,0.0000,0.1260,0.0257,0.0619,100.00,28.90,809,8.09,0.0,0.0,80.9,0.0,80.9
00:21:10,0.0000,0.1441,0.0257,0.0623,100.00,29.09,803,8.03,0.0,0.0,80.3,0.0,80.3
00:21:20,0.0000,0.1480,0.0257,0.0627,100.00,29.28,803,8.03,0.0,0.0,80.3,0.0,80.3
00:21:30,0.0000,0.1557,0.0257,0.0631,100.00,29.48,801,8.01,0.0,0.0,80.1,0.0,80.1
00:21:40,0.0000,0.1523,0.0257,0.0635,100.00,29.68,803,8.03,0.0,0.0,80.3,0.0,80.3
00:21:50,0.0000,0.0962,0.0257,0.0638,100.00,29.81,799,7.99,0.0,0.0,79.9,0.0,79.9
00:22:00,0.0000,0.1263,0.0257,0.0642,100.00,29.97,801,8.01,0.0,0.0,80.1,0.0,80.1
00:22:10,0.0000,0.1493,0.0257,0.0646,100.00,30.16,801,8.01,0.0,0.0,80.1,0.0,80.1
00:22:20,0.0000,0.1103,0.0257,0.0649,100.00,30.31,800,8.0,0.0,0.0,80.0,0.0,80.0
00:22:30,0.0000,0.1652,0.0257,0.0653,100.00,30.52,799,7.99,0.0,0.0,79.9,0.0,79.9
00:22:40,0.0000,0.1468,0.0257,0.0657,100.00,30.71,793,7.93,0.0,0.0,79.3,0.0,79.3
00:22:50,0.0000,0.1402,0.0257,0.0661,100.00,30.89,798,7.98,0.0,0.0,79.8,0.0,79.8
00:23:00,0.0000,0.1363,0.0257,0.0665,100.00,31.07,792,7.92,0.0,0.0,79.2,0.0,79.2
00:23:10,0.0000,0.1224,0.0257,0.0668,100.00,31.23,793,7.93,0.0,0.0,79.3,0.0,79.3
00:23:20,0.0000,0.1005,0.0257,0.0671,100.00,31.36,793,7.93,0.0,0.0,79.3,0.0,79.3
00:23:30,0.0000,0.1395,0.0257,0.0675,100.00,31.54,793,7.93,0.0,0.0,79.3,0.0,79.3
00:23:40,0.0000,0.1479,0.0257,0.0679,100.00,31.73,793,7.93,0.0,0.0,79.3,0.0,79.3
00:23:50,0.0000,0.1357,0.0257,0.0683,100.00,31.91,791,7.91,0.0,0.0,79.1,0.0,79.1
00:24:00,0.0000,0.1203,0.0257,0.0686,100.00,32.06,793,7.93,0.0,0.0,79.3,0.0,79.3
00:24:10,0.0000,0.1286,0.0257,0.0690,100.00,32.23,798,7.98,0.0,0.0,79.8,0.0,79.8
00:24:20,0.0000,0.1324,0.0257,0.0694,100.00,32.40,798,7.98,0.0,0.0,79.8,0.0,79.8
00:24:30,0.0000,0.0000,0.0257,0.0694,100.00,32.40,800,8.0,0.0,0.0,80.0,0.0,80.0
00:24:40,0.0000,0.1478,0.0257,0.0698,100.00,32.59,799,7.99,0.0,0.0,79.9,0.0,79.9
00:24:50,0.0000,0.1196,0.0257,0.0701,100.00,32.75,797,7.97,0.0,0.0,79.7,0.0,79.7
00:25:00,0.0000,0.1478,0.0257,0.0705,100.00,32.94,796,7.96,0.0,0.0,79.6,0.0,79.6
00:25:10,0.0000,0.1469,0.0257,0.0709,100.00,33.13,797,7.97,0.0,0.0,79.7,0.0,79.7
00:25:20,0.0000,0.1489,0.0257,0.0713,100.00,33.33,796,7.96,0.0,0.0,79.6,0.0,79.6
00:25:30,0.0000,0.1294,0.0257,0.0717,100.00,33.49,797,7.97,0.0,0.0,79.7,0.0,79.7
00:25:40,0.0000,0.1464,0.0257,0.0721,100.00,33.68,797,7.97,0.0,0.0,79.7,0.0,79.7
00:25:50,0.0000,0.1115,0.0257,0.0724,100.00,33.83,801,8.01,0.0,0.0,80.1,0.0,80.1
00:26:00,0.0000,0.1384,0.0257,0.0728,100.00,34.01,802,8.02,0.0,0.0,80.2,0.0,80.2
00:26:10,0.0000,0.0934,0.0257,0.0731,100.00,34.13,802,8.02,0.0,0.0,80.2,0.0,80.2
00:26:20,0.0000,0.1408,0.0257,0.0734,100.00,34.31,803,8.03,0.0,0.0,80.3,0.0,80.3
00:26:30,0.0000,0.1262,0.0257,0.0738,100.00,34.48,802,8.02,0.0,0.0,80.2,0.0,80.2
00:26:40,0.0000,0.1432,0.0257,0.0742,100.00,34.66,801,8.01,0.0,0.0,80.1,0.0,80.1
00:26:50,0.0000,0.1339,0.0257,0.0746,100.00,34.84,800,8.0,0.0,0.0,80.0,0.0,80.0
00:27:00,0.0000,0.1613,0.0257,0.0750,100.00,35.04,800,8.0,0.0,0.0,80.0,0.0,80.0
00:27:10,0.0000,0.1700,0.0257,0.0755,100.00,35.27,807,8.07,0.0,0.0,80.7,0.0,80.7
00:27:20,0.0000,0.1461,0.0257,0.0759,100.00,35.45,806,8.06,0.0,0.0,80.6,0.0,80.6
00:27:30,0.0000,0.1440,0.0257,0.0763,100.00,35.64,807,8.07,0.0,0.0,80.7,0.0,80.7
00:27:40,0.0000,0.1325,0.0257,0.0767,100.00,35.81,806,8.06,0.0,0.0,80.6,0.0,80.6
00:27:50,0.0000,0.1325,0.0257,0.0770,100.00,35.99,812,8.12,0.0,0.0,81.2,0.0,81.2
00:28:00,0.0000,0.1436,0.0257,0.0774,100.00,36.17,816,8.16,0.0,0.0,81.6,0.0,81.6
00:28:10,0.0000,0.1330,0.0257,0.0778,100.00,36.34,820,8.2,0.0,0.0,82.0,0.0,82.0
00:28:20,0.0000,0.1434,0.0257,0.0782,100.00,36.53,823,8.23,0.0,0.0,82.3,0.0,82.3
00:28:30,0.0000,0.1496,0.0257,0.0786,100.00,36.72,830,8.3,0.0,0.0,83.0,0.0,83.0
00:28:40,0.0000,0.1294,0.0257,0.0790,100.00,36.89,833,8.33,0.0,0.0,83.3,0.0,83.3
00:28:50,0.0000,0.1457,0.0257,0.0794,100.00,37.08,828,8.28,0.0,0.0,82.8,0.0,82.8
00:29:00,0.0000,0.1410,0.0257,0.0798,100.00,37.26,835,8.35,0.0,0.0,83.5,0.0,83.5
00:29:10,0.0000,0.1294,0.0257,0.0801,100.00,37.43,834,8.34,0.0,0.0,83.4,0.0,83.4
00:29:20,0.0000,0.1277,0.0257,0.0805,100.00,37.60,840,8.4,0.0,0.0,84.0,0.0,84.0
00:29:30,0.0000,0.0000,0.0257,0.0805,100.00,37.60,844,8.44,0.0,0.0,84.4,0.0,84.4
00:29:40,0.0000,0.1389,0.0257,0.0809,100.00,37.78,847,8.47,0.0,0.0,84.7,0.0,84.7
00:29:50,0.0000,0.1348,0.0257,0.0812,100.00,37.95,849,8.49,0.0,0.0,84.9,0.0,84.9
00:30:00,0.0000,0.1303,0.0257,0.0816,100.00,38.12,853,8.53,0.0,0.0,85.3,0.0,85.3
00:30:10,0.0000,0.1944,0.0257,0.0821,100.00,38.37,859,8.59,0.0,0.0,85.9,0.0,85.9
00:30:20,0.0000,0.1571,0.0257,0.0826,100.00,38.58,865,8.65,0.0,0.0,86.5,0.0,86.5
00:30:30,0.0000,0.1142,0.0257,0.0829,100.00,38.73,874,8.74,0.0,0.0,87.4,0.0,87.4
00:30:40,0.0000,0.1492,0.0257,0.0833,100.00,38.92,868,8.68,0.0,0.0,86.8,0.0,86.8
00:30:50,0.0000,0.1584,0.0257,0.0838,100.00,39.13,868,8.68,0.0,0.0,86.8,0.0,86.8
00:31:00,0.0000,0.1490,0.0257,0.0842,100.00,39.32,872,8.72,0.0,0.0,87.2,0.0,87.2
00:31:10,0.0000,0.1210,0.0257,0.0845,100.00,39.48,876,8.76,0.0,0.0,87.6,0.0,87.6
00:31:20,0.0000,0.1476,0.0257,0.0849,100.00,39.67,882,8.82,0.0,0.0,88.2,0.0,88.2
00:31:30,0.0000,0.1408,0.0257,0.0853,100.00,39.85,895,8.95,0.0,0.0,89.5,0.0,89.5
00:31:40,0.0000,0.1130,0.0257,0.0856,100.00,40.00,907,9.07,0.0,0.0,90.7,0.0,90.7
00:31:50,0.0000,0.1201,0.0257,0.0860,100.00,40.15,530,5.3,0.0,0.0,53.0,0.0,53.0
00:32:00,0.0000,0.1547,0.0257,0.0864,100.00,40.35,285,2.85,0.0,0.0,28.5,0.0,28.5
00:32:10,0.0000,0.1451,0.0257,0.0868,100.00,40.54,206,2.06,0.0,0.0,20.6,0.0,20.6
00:32:20,0.0000,0.1314,0.0257,0.0871,100.00,40.71,465,4.65,0.0,0.0,46.5,0.0,46.5
00:32:30,0.0000,0.1624,0.0257,0.0876,100.00,40.92,316,3.16,0.0,0.0,31.6,0.0,31.6
00:32:40,0.0000,0.1543,0.0257,0.0880,100.00,41.12,225,2.25,0.0,0.0,22.5,0.0,22.5
00:32:50,0.0000,0.1324,0.0257,0.0884,100.00,41.30,294,2.94,0.0,0.0,29.4,0.0,29.4
00:33:00,0.0000,0.1592,0.0257,0.0888,100.00,41.50,273,2.73,0.0,0.0,27.3,0.0,27.3
00:33:10,0.0000,0.1605,0.0257,0.0893,100.00,41.71,408,4.08,0.0,0.0,40.8,0.0,40.8
00:33:20,0.0000,0.1141,0.0257,0.0896,100.00,41.86,871,8.71,0.0,0.0,87.1,0.0,87.1
00:33:30,0.0000,0.1200,0.0257,0.0899,100.00,42.01,891,8.91,0.0,0.0,89.1,0.0,89.1
00:33:40,0.0000,0.1590,0.0257,0.0904,100.00,42.22,872,8.72,0.0,0.0,87.2,0.0,87.2
00:33:50,0.0000,0.1577,0.0257,0.0908,100.00,42.43,866,8.66,0.0,0.0,86.6,0.0,86.6
00:34:00,0.0000,0.1479,0.0257,0.0912,100.00,42.62,859,8.59,0.0,0.0,85.9,0.0,85.9
00:34:10,0.0000,0.1555,0.0257,0.0917,100.00,42.82,856,8.56,0.0,0.0,85.6,0.0,85.6
00:34:20,0.0000,0.1324,0.0257,0.0920,100.00,42.99,854,8.54,0.0,0.0,85.4,0.0,85.4
00:34:30,0.0000,0.1401,0.0257,0.0924,100.00,43.17,846,8.46,0.0,0.0,84.6,0.0,84.6
00:34:40,0.0000,0.1226,0.0257,0.0928,100.00,43.33,844,8.44,0.0,0.0,84.4,0.0,84.4
00:34:50,0.0000,0.1315,0.0257,0.0931,100.00,43.50,840,8.4,0.0,0.0,84.0,0.0,84.0
00:35:00,0.0000,0.1171,0.0257,0.0934,100.00,43.65,840,8.4,0.0,0.0,84.0,0.0,84.0
00:35:10,0.0000,0.1544,0.0257,0.0939,100.00,43.85,838,8.38,0.0,0.0,83.8,0.0,83.8
00:35:20,0.0000,0.1280,0.0257,0.0942,100.00,44.02,837,8.37,0.0,0.0,83.7,0.0,83.7
00:35:30,0.0000,0.1472,0.0257,0.0946,100.00,44.21,833,8.33,0.0,0.0,83.3,0.0,83.3
00:35:40,0.0000,0.1225,0.0257,0.0950,100.00,44.37,832,8.32,0.0,0.0,83.2,0.0,83.2
00:35:50,0.0000,0.1562,0.0257,0.0954,100.00,44.57,827,8.27,0.0,0.0,82.7,0.0,82.7
00:36:00,0.0000,0.1254,0.0257,0.0958,100.00,44.74,824,8.24,0.0,0.0,82.4,0.0,82.4
00:36:10,0.0000,0.1566,0.0257,0.0962,100.00,44.94,821,8.21,0.0,0.0,82.1,0.0,82.1
00:36:20,0.0000,0.1987,0.0257,0.0967,100.00,45.20,819,8.19,0.0,0.0,81.9,0.0,81.9
00:36:30,0.0000,0.1301,0.0257,0.0971,100.00,45.37,815,8.15,0.0,0.0,81.5,0.0,81.5
00:36:40,0.0000,0.1372,0.0257,0.0975,100.00,45.54,809,8.09,0.0,0.0,80.9,0.0,80.9
00:36:50,0.0000,0.1459,0.0257,0.0979,100.00,45.73,814,8.14,0.0,0.0,81.4,0.0,81.4
00:37:00,0.0000,0.1573,0.0257,0.0983,100.00,45.94,811,8.11,0.0,0.0,81.1,0.0,81.1
00:37:10,0.0000,0.1474,0.0257,0.0987,100.00,46.13,813,8.13,0.0,0.0,81.3,0.0,81.3
00:37:20,0.0000,0.1309,0.0257,0.0991,100.00,46.30,809,8.09,0.0,0.0,80.9,0.0,80.9
00:37:30,0.0000,0.1494,0.0257,0.0995,100.00,46.49,809,8.09,0.0,0.0,80.9,0.0,80.9
00:37:40,0.0000,0.1542,0.0257,0.0999,100.00,46.69,811,8.11,0.0,0.0,81.1,0.0,81.1
00:37:50,0.0000,0.1429,0.0257,0.1003,100.00,46.88,807,8.07,0.0,0.0,80.7,0.0,80.7
00:38:00,0.0000,0.1447,0.0257,0.1007,100.00,47.07,810,8.1,0.0,0.0,81.0,0.0,81.0
00:38:10,0.0000,0.1440,0.0257,0.1011,100.00,47.25,810,8.1,0.0,0.0,81.0,0.0,81.0
00:38:20,0.0000,0.1511,0.0257,0.1016,100.00,47.45,810,8.1,0.0,0.0,81.0,0.0,81.0
00:38:30,0.0000,0.1556,0.0257,0.1020,100.00,47.65,810,8.1,0.0,0.0,81.0,0.0,81.0
00:38:40,0.0000,0.1259,0.0257,0.1023,100.00,47.81,811,8.11,0.0,0.0,81.1,0.0,81.1
00:38:50,0.0000,0.1334,0.0257,0.1027,100.00,47.99,814,8.14,0.0,0.0,81.4,0.0,81.4
00:39:00,0.0000,0.1439,0.0257,0.1031,100.00,48.17,807,8.07,0.0,0.0,80.7,0.0,80.7
00:39:10,0.0000,0.1318,0.0257,0.1035,100.00,48.34,807,8.07,0.0,0.0,80.7,0.0,80.7
00:39:20,0.0000,0.1366,0.0257,0.1039,100.00,48.52,806,8.06,0.0,0.0,80.6,0.0,80.6
00:39:30,0.0000,0.1124,0.0257,0.1042,100.00,48.67,806,8.06,0.0,0.0,80.6,0.0,80.6
00:39:40,0.0000,0.1135,0.0257,0.1045,100.00,48.82,808,8.08,0.0,0.0,80.8,0.0,80.8
00:39:50,0.0000,0.1212,0.0257,0.1048,100.00,48.97,808,8.08,0.0,0.0,80.8,0.0,80.8
00:40:00,0.0000,0.1439,0.0257,0.1052,100.00,49.16,806,8.06,0.0,0.0,80.6,0.0,80.6
00:40:10,0.0000,0.1260,0.0257,0.1056,100.00,49.32,801,8.01,0.0,0.0,80.1,0.0,80.1
00:40:20,0.0000,0.1850,0.0257,0.1061,100.00,49.56,798,7.98,0.0,0.0,79.8,0.0,79.8
00:40:30,0.0000,0.1731,0.0257,0.1066,100.00,49.79,800,8.0,0.0,0.0,80.0,0.0,80.0
00:40:40,0.0000,0.1166,0.0257,0.1069,100.00,49.94,788,7.88,0.0,0.0,78.8,0.0,78.8
00:40:50,0.0000,0.1340,0.0257,0.1073,100.00,50.11,795,7.95,0.0,0.0,79.5,0.0,79.5
00:41:00,0.0000,0.1189,0.0257,0.1076,100.00,50.27,799,7.99,0.0,0.0,79.9,0.0,79.9
00:41:10,0.0000,0.1844,0.0257,0.1081,100.00,50.51,795,7.95,0.0,0.0,79.5,0.0,79.5
00:41:20,0.0000,0.1579,0.0257,0.1086,100.00,50.71,795,7.95,0.0,0.0,79.5,0.0,79.5
00:41:30,0.0000,0.1609,0.0257,0.1090,100.00,50.92,795,7.95,0.0,0.0,79.5,0.0,79.5
00:41:40,0.0000,0.1418,0.0257,0.1094,100.00,51.10,801,8.01,0.0,0.0,80.1,0.0,80.1
00:41:50,0.0000,0.1538,0.0257,0.1098,100.00,51.30,805,8.05,0.0,0.0,80.5,0.0,80.5
00:42:00,0.0000,0.0000,0.0257,0.1098,100.00,51.30,802,8.02,0.0,0.0,80.2,0.0,80.2
00:42:10,0.0000,0.1359,0.0257,0.1102,100.00,51.48,803,8.03,0.0,0.0,80.3,0.0,80.3
00:42:20,0.0000,0.1592,0.0257,0.1106,100.00,51.69,802,8.02,0.0,0.0,80.2,0.0,80.2
00:42:30,0.0000,0.1192,0.0257,0.1110,100.00,51.84,800,8.0,0.0,0.0,80.0,0.0,80.0
00:42:40,0.0000,0.1717,0.0257,0.1114,100.00,52.06,798,7.98,0.0,0.0,79.8,0.0,79.8
00:42:50,0.0000,0.1589,0.0257,0.1119,100.00,52.27,802,8.02,0.0,0.0,80.2,0.0,80.2
00:43:00,0.0000,0.1482,0.0257,0.1123,100.00,52.46,801,8.01,0.0,0.0,80.1,0.0,80.1
00:43:10,0.0000,0.1395,0.0257,0.1127,100.00,52.64,805,8.05,0.0,0.0,80.5,0.0,80.5
00:43:20,0.0000,0.1235,0.0257,0.1130,100.00,52.80,807,8.07,0.0,0.0,80.7,0.0,80.7
00:43:30,0.0000,0.1601,0.0257,0.1135,100.00,53.01,811,8.11,0.0,0.0,81.1,0.0,81.1
00:43:40,0.0000,0.1217,0.0257,0.1138,100.00,53.17,814,8.14,0.0,0.0,81.4,0.0,81.4
00:43:50,0.0000,0.1937,0.0257,0.1144,100.00,53.42,814,8.14,0.0,0.0,81.4,0.0,81.4
00:44:00,0.0000,0.1364,0.0257,0.1147,100.00,53.60,814,8.14,0.0,0.0,81.4,0.0,81.4
00:44:10,0.0000,0.1799,0.0257,0.1152,100.00,53.83,810,8.1,0.0,0.0,81.0,0.0,81.0
00:44:20,0.0000,0.1208,0.0257,0.1156,100.00,53.99,808,8.08,0.0,0.0,80.8,0.0,80.8
00:44:30,0.0000,0.1183,0.0257,0.1159,100.00,54.14,806,8.06,0.0,0.0,80.6,0.0,80.6
00:44:40,0.0000,0.1598,0.0257,0.1163,100.00,54.35,804,8.04,0.0,0.0,80.4,0.0,80.4
00:44:50,0.0000,0.1869,0.0257,0.1169,100.00,54.59,804,8.04,0.0,0.0,80.4,0.0,80.4
00:45:00,0.0000,0.1198,0.0257,0.1172,100.00,54.75,803,8.03,0.0,0.0,80.3,0.0,80.3
00:45:10,0.0000,0.1613,0.0257,0.1176,100.00,54.96,802,8.02,0.0,0.0,80.2,0.0,80.2
00:45:20,0.0000,0.1615,0.0257,0.1181,100.00,55.17,805,8.05,0.0,0.0,80.5,0.0,80.5
00:45:30,0.0000,0.1491,0.0257,0.1185,100.00,55.36,804,8.04,0.0,0.0,80.4,0.0,80.4
00:45:40,0.0000,0.1173,0.0257,0.1188,100.00,55.51,806,8.06,0.0,0.0,80.6,0.0,80.6
00:45:50,0.0000,0.1360,0.0257,0.1192,100.00,55.69,809,8.09,0.0,0.0,80.9,0.0,80.9
00:46:00,0.0000,0.1851,0.0257,0.1197,100.00,55.93,809,8.09,0.0,0.0,80.9,0.0,80.9
00:46:10,0.0000,0.1570,0.0257,0.1202,100.00,56.13,808,8.08,0.0,0.0,80.8,0.0,80.8
00:46:20,0.0000,0.1626,0.0257,0.1206,100.00,56.34,809,8.09,0.0,0.0,80.9,0.0,80.9
00:46:30,0.0000,0.1359,0.0257,0.1210,100.00,56.52,813,8.13,0.0,0.0,81.3,0.0,81.3
00:46:40,0.0000,0.1183,0.0257,0.1213,100.00,56.67,813,8.13,0.0,0.0,81.3,0.0,81.3
00:46:50,0.0000,0.1142,0.0257,0.1216,100.00,56.82,816,8.16,0.0,0.0,81.6,0.0,81.6
00:47:00,0.0000,0.0000,0.0257,0.1216,100.00,56.82,815,8.15,0.0,0.0,81.5,0.0,81.5
00:47:10,0.0000,0.1531,0.0257,0.1221,100.00,57.02,814,8.14,0.0,0.0,81.4,0.0,81.4
00:47:20,0.0000,0.1453,0.0257,0.1225,100.00,57.21,815,8.15,0.0,0.0,81.5,0.0,81.5
00:47:30,0.0000,0.1328,0.0257,0.1228,100.00,57.38,816,8.16,0.0,0.0,81.6,0.0,81.6
00:47:40,0.0000,0.1399,0.0257,0.1232,100.00,57.56,817,8.17,0.0,0.0,81.7,0.0,81.7
00:47:50,0.0000,0.1389,0.0257,0.1236,100.00,57.74,815,8.15,0.0,0.0,81.5,0.0,81.5
00:48:00,0.0000,0.1324,0.0257,0.1240,100.00,57.91,815,8.15,0.0,0.0,81.5,0.0,81.5
00:48:10,0.0000,0.1292,0.0257,0.1243,100.00,58.08,813,8.13,0.0,0.0,81.3,0.0,81.3
00:48:20,0.0000,0.1303,0.0257,0.1247,100.00,58.25,813,8.13,0.0,0.0,81.3,0.0,81.3
00:48:30,0.0000,0.1293,0.0257,0.1250,100.00,58.42,815,8.15,0.0,0.0,81.5,0.0,81.5
00:48:40,0.0000,0.1300,0.0257,0.1254,100.00,58.59,814,8.14,0.0,0.0,81.4,0.0,81.4
00:48:50,0.0000,0.1395,0.0257,0.1258,100.00,58.77,815,8.15,0.0,0.0,81.5,0.0,81.5
00:49:00,0.0000,0.1399,0.0257,0.1262,100.00,58.95,810,8.1,0.0,0.0,81.0,0.0,81.0
00:49:10,0.0000,0.1323,0.0257,0.1266,100.00,59.12,812,8.12,0.0,0.0,81.2,0.0,81.2
00:49:20,0.0000,0.1321,0.0257,0.1269,100.00,59.29,811,8.11,0.0,0.0,81.1,0.0,81.1
00:49:30,0.0000,0.1389,0.0257,0.1273,100.00,59.47,812,8.12,0.0,0.0,81.2,0.0,81.2
00:49:40,0.0000,0.1349,0.0257,0.1277,100.00,59.65,812,8.12,0.0,0.0,81.2,0.0,81.2
00:49:50,0.0000,0.1366,0.0257,0.1281,100.00,59.83,813,8.13,0.0,0.0,81.3,0.0,81.3
00:50:00,0.0000,0.1337,0.0257,0.1284,100.00,60.00,813,8.13,0.0,0.0,81.3,0.0,81.3
00:50:10,0.0000,0.1371,0.0257,0.1288,100.00,60.18,814,8.14,0.0,0.0,81.4,0.0,81.4
00:50:20,0.0000,0.1342,0.0257,0.1292,100.00,60.35,812,8.12,0.0,0.0,81.2,0.0,81.2
00:50:30,0.0000,0.1361,0.0257,0.1296,100.00,60.53,810,8.1,0.0,0.0,81.0,0.0,81.0
00:50:40,0.0000,0.1276,0.0257,0.1299,100.00,60.69,810,8.1,0.0,0.0,81.0,0.0,81.0
00:50:50,0.0000,0.1351,0.0257,0.1303,100.00,60.87,813,8.13,0.0,0.0,81.3,0.0,81.3
00:51:00,0.0000,0.1294,0.0257,0.1307,100.00,61.04,813,8.13,0.0,0.0,81.3,0.0,81.3
00:51:10,0.0000,0.1745,0.0257,0.1311,100.00,61.26,812,8.12,0.0,0.0,81.2,0.0,81.2
00:51:20,0.0000,0.1330,0.0257,0.1315,100.00,61.44,814,8.14,0.0,0.0,81.4,0.0,81.4
00:51:30,0.0000,0.1442,0.0257,0.1319,100.00,61.62,814,8.14,0.0,0.0,81.4,0.0,81.4
00:51:40,0.0000,0.1408,0.0257,0.1323,100.00,61.81,813,8.13,0.0,0.0,81.3,0.0,81.3
00:51:50,0.0000,0.1304,0.0257,0.1327,100.00,61.97,812,8.12,0.0,0.0,81.2,0.0,81.2
00:52:00,0.0000,0.1040,0.0257,0.1330,100.00,62.11,814,8.14,0.0,0.0,81.4,0.0,81.4
00:52:10,0.0000,0.1493,0.0257,0.1334,100.00,62.30,813,8.13,0.0,0.0,81.3,0.0,81.3
00:52:20,0.0000,0.0955,0.0257,0.1336,100.00,62.43,815,8.15,0.0,0.0,81.5,0.0,81.5
00:52:30,0.0000,0.0932,0.0257,0.1339,100.00,62.55,815,8.15,0.0,0.0,81.5,0.0,81.5
00:52:40,0.0000,0.0926,0.0257,0.1341,100.00,62.67,813,8.13,0.0,0.0,81.3,0.0,81.3
00:52:50,0.0000,0.1372,0.0257,0.1345,100.00,62.85,815,8.15,0.0,0.0,81.5,0.0,81.5
00:53:00,0.0000,0.1287,0.0257,0.1349,100.00,63.01,815,8.15,0.0,0.0,81.5,0.0,81.5
00:53:10,0.0000,0.1351,0.0257,0.1353,100.00,63.19,815,8.15,0.0,0.0,81.5,0.0,81.5
00:53:20,0.0000,0.1311,0.0257,0.1356,100.00,63.36,813,8.13,0.0,0.0,81.3,0.0,81.3
00:53:30,0.0000,0.1484,0.0257,0.1360,100.00,63.55,812,8.12,0.0,0.0,81.2,0.0,81.2
00:53:40,0.0000,0.0950,0.0257,0.1363,100.00,63.68,811,8.11,0.0,0.0,81.1,0.0,81.1
00:53:50,0.0000,0.1242,0.0257,0.1366,100.00,63.84,812,8.12,0.0,0.0,81.2,0.0,81.2
00:54:00,0.0000,0.1473,0.0257,0.1371,100.00,64.03,810,8.1,0.0,0.0,81.0,0.0,81.0
00:54:10,0.0000,0.1327,0.0257,0.1374,100.00,64.20,811,8.11,0.0,0.0,81.1,0.0,81.1
00:54:20,0.0000,0.1361,0.0257,0.1378,100.00,64.38,810,8.1,0.0,0.0,81.0,0.0,81.0
00:54:30,0.0000,0.1372,0.0257,0.1382,100.00,64.55,812,8.12,0.0,0.0,81.2,0.0,81.2
00:54:40,0.0000,0.1376,0.0257,0.1386,100.00,64.73,808,8.08,0.0,0.0,80.8,0.0,80.8
00:54:50,0.0000,0.1372,0.0257,0.1389,100.00,64.91,806,8.06,0.0,0.0,80.6,0.0,80.6
00:55:00,0.0000,0.1327,0.0257,0.1393,100.00,65.08,809,8.09,0.0,0.0,80.9,0.0,80.9
00:55:10,0.0000,0.1386,0.0257,0.1397,100.00,65.26,807,8.07,0.0,0.0,80.7,0.0,80.7
00:55:20,0.0000,0.1591,0.0257,0.1401,100.00,65.47,808,8.08,0.0,0.0,80.8,0.0,80.8
00:55:30,0.0000,0.1314,0.0257,0.1405,100.00,65.64,804,8.04,0.0,0.0,80.4,0.0,80.4
00:55:40,0.0000,0.1312,0.0257,0.1409,100.00,65.81,805,8.05,0.0,0.0,80.5,0.0,80.5
00:55:50,0.0000,0.1396,0.0257,0.1413,100.00,65.99,806,8.06,0.0,0.0,80.6,0.0,80.6
00:56:00,0.0000,0.1790,0.0257,0.1418,100.00,66.22,803,8.03,0.0,0.0,80.3,0.0,80.3
00:56:10,0.0000,0.1355,0.0257,0.1421,100.00,66.40,802,8.02,0.0,0.0,80.2,0.0,80.2
00:56:20,0.0000,0.1357,0.0257,0.1425,100.00,66.58,804,8.04,0.0,0.0,80.4,0.0,80.4
00:56:30,0.0000,0.1664,0.0257,0.1430,100.00,66.79,801,8.01,0.0,0.0,80.1,0.0,80.1
00:56:40,0.0000,0.1359,0.0257,0.1433,100.00,66.97,804,8.04,0.0,0.0,80.4,0.0,80.4
00:56:50,0.0000,0.1529,0.0257,0.1438,100.00,67.17,799,7.99,0.0,0.0,79.9,0.0,79.9
00:57:00,0.0000,0.1556,0.0257,0.1442,100.00,67.37,800,8.0,0.0,0.0,80.0,0.0,80.0
00:57:10,0.0000,0.1591,0.0257,0.1446,100.00,67.57,799,7.99,0.0,0.0,79.9,0.0,79.9
00:57:20,0.0000,0.1274,0.0257,0.1450,100.00,67.74,795,7.95,0.0,0.0,79.5,0.0,79.5
00:57:30,0.0000,0.1362,0.0257,0.1454,100.00,67.92,793,7.93,0.0,0.0,79.3,0.0,79.3
00:57:40,0.0000,0.1464,0.0257,0.1458,100.00,68.11,786,7.86,0.0,0.0,78.6,0.0,78.6
00:57:50,0.0000,0.1238,0.0257,0.1461,100.00,68.27,787,7.87,0.0,0.0,78.7,0.0,78.7
00:58:00,0.0000,0.1417,0.0257,0.1465,100.00,68.45,796,7.96,0.0,0.0,79.6,0.0,79.6
00:58:10,0.0000,0.1457,0.0257,0.1469,100.00,68.64,800,8.0,0.0,0.0,80.0,0.0,80.0
00:58:20,0.0000,0.1428,0.0257,0.1473,100.00,68.83,797,7.97,0.0,0.0,79.7,0.0,79.7
00:58:30,0.0000,0.1347,0.0257,0.1477,100.00,69.00,794,7.94,0.0,0.0,79.4,0.0,79.4
00:58:40,0.0000,0.1309,0.0257,0.1481,100.00,69.17,792,7.92,0.0,0.0,79.2,0.0,79.2
00:58:50,0.0000,0.1883,0.0257,0.1486,100.00,69.41,793,7.93,0.0,0.0,79.3,0.0,79.3
00:59:00,0.0000,0.0954,0.0257,0.1489,100.00,69.54,799,7.99,0.0,0.0,79.9,0.0,79.9
00:59:10,0.0000,0.1217,0.0257,0.1492,100.00,69.70,800,8.0,0.0,0.0,80.0,0.0,80.0
00:59:20,0.0000,0.1301,0.0257,0.1496,100.00,69.87,801,8.01,0.0,0.0,80.1,0.0,80.1
00:59:30,0.0000,0.1678,0.0257,0.1500,100.00,70.08,802,8.02,0.0,0.0,80.2,0.0,80.2
00:59:40,0.0000,0.1556,0.0257,0.1504,100.00,70.28,805,8.05,0.0,0.0,80.5,0.0,80.5
00:59:50,0.0000,0.1728,0.0257,0.1509,100.00,70.51,803,8.03,0.0,0.0,80.3,0.0,80.3
01:00:00,0.0000,0.1400,0.0257,0.1513,100.00,70.69,806,8.06,0.0,0.0,80.6,0.0,80.6
01:00:10,0.0000,0.1353,0.0257,0.1517,100.00,70.87,806,8.06,0.0,0.0,80.6,0.0,80.6
01:00:20,0.0000,0.1387,0.0257,0.1521,100.00,71.05,803,8.03,0.0,0.0,80.3,0.0,80.3
01:00:30,0.0000,0.1386,0.0257,0.1525,100.00,71.23,809,8.09,0.0,0.0,80.9,0.0,80.9
01:00:40,0.0000,0.1330,0.0257,0.1528,100.00,71.40,811,8.11,0.0,0.0,81.1,0.0,81.1
01:00:50,0.0000,0.1361,0.0257,0.1532,100.00,71.58,812,8.12,0.0,0.0,81.2,0.0,81.2
01:01:00,0.0000,0.1343,0.0257,0.1536,100.00,71.75,816,8.16,0.0,0.0,81.6,0.0,81.6
01:01:10,0.0000,0.1399,0.0257,0.1540,100.00,71.93,823,8.23,0.0,0.0,82.3,0.0,82.3
01:01:20,0.0000,0.1675,0.0257,0.1544,100.00,72.15,194.5,1.945,0.0,0.0,19.5,0.0,19.5
01:01:30,0.0000,0.1819,0.0257,0.1549,100.00,72.38,568,5.68,0.0,0.0,56.8,0.0,56.8
01:01:40,0.0000,0.1376,0.0257,0.1553,100.00,72.56,622,6.22,0.0,0.0,62.2,0.0,62.2
01:01:50,0.0000,0.1334,0.0257,0.1557,100.00,72.74,840,8.4,0.0,0.0,84.0,0.0,84.0
01:02:00,0.0000,0.1414,0.0257,0.1561,100.00,72.92,833,8.33,0.0,0.0,83.3,0.0,83.3
01:02:10,0.0000,0.1390,0.0257,0.1565,100.00,73.10,841,8.41,0.0,0.0,84.1,0.0,84.1
01:02:20,0.0000,0.1294,0.0257,0.1568,100.00,73.27,840,8.4,0.0,0.0,84.0,0.0,84.0
01:02:30,0.0000,0.1714,0.0257,0.1573,100.00,73.49,570,5.7,0.0,0.0,57.0,0.0,57.0
01:02:40,0.0000,0.1356,0.0257,0.1577,100.00,73.67,782,7.82,0.0,0.0,78.2,0.0,78.2
01:02:50,0.0000,0.0924,0.0257,0.1579,100.00,73.79,827,8.27,0.0,0.0,82.7,0.0,82.7
01:03:00,0.0000,0.1354,0.0257,0.1583,100.00,73.96,732,7.32,0.0,0.0,73.2,0.0,73.2
01:03:10,0.0000,0.1375,0.0257,0.1587,100.00,74.14,446,4.46,0.0,0.0,44.6,0.0,44.6
01:03:20,0.0000,0.1209,0.0257,0.1590,100.00,74.30,819,8.19,0.0,0.0,81.9,0.0,81.9
01:03:30,0.0000,0.1429,0.0257,0.1594,100.00,74.48,832,8.32,0.0,0.0,83.2,0.0,83.2
01:03:40,0.0000,0.1336,0.0257,0.1598,100.00,74.66,830,8.3,0.0,0.0,83.0,0.0,83.0
01:03:50,0.0000,0.1397,0.0257,0.1602,100.00,74.84,832,8.32,0.0,0.0,83.2,0.0,83.2
01:04:00,0.0000,0.1232,0.0257,0.1605,100.00,75.00,831,8.31,0.0,0.0,83.1,0.0,83.1
01:04:10,0.0000,0.1304,0.0257,0.1609,100.00,75.17,831,8.31,0.0,0.0,83.1,0.0,83.1
01:04:20,0.0000,0.1259,0.0257,0.1612,100.00,75.33,830,8.3,0.0,0.0,83.0,0.0,83.0
01:04:30,0.0000,0.1318,0.0257,0.1616,100.00,75.50,826,8.26,0.0,0.0,82.6,0.0,82.6
01:04:40,0.0000,0.1489,0.0257,0.1620,100.00,75.69,824,8.24,0.0,0.0,82.4,0.0,82.4
01:04:50,0.0000,0.1686,0.0257,0.1625,100.00,75.91,820,8.2,0.0,0.0,82.0,0.0,82.0
01:05:00,0.0000,0.1400,0.0257,0.1629,100.00,76.09,817,8.17,0.0,0.0,81.7,0.0,81.7
01:05:10,0.0000,0.1154,0.0257,0.1632,100.00,76.24,813,8.13,0.0,0.0,81.3,0.0,81.3
01:05:20,0.0000,0.1345,0.0257,0.1636,100.00,76.42,811,8.11,0.0,0.0,81.1,0.0,81.1
01:05:30,0.0000,0.1407,0.0257,0.1640,100.00,76.60,811,8.11,0.0,0.0,81.1,0.0,81.1
01:05:40,0.0000,0.1313,0.0257,0.1643,100.00,76.77,810,8.1,0.0,0.0,81.0,0.0,81.0
01:05:50,0.0000,0.1475,0.0257,0.1647,100.00,76.96,806,8.06,0.0,0.0,80.6,0.0,80.6
01:06:00,0.0000,0.1243,0.0257,0.1651,100.00,77.12,806,8.06,0.0,0.0,80.6,0.0,80.6
01:06:10,0.0000,0.0995,0.0257,0.1654,100.00,77.25,803,8.03,0.0,0.0,80.3,0.0,80.3
01:06:20,0.0000,0.1513,0.0257,0.1658,100.00,77.45,803,8.03,0.0,0.0,80.3,0.0,80.3
01:06:30,0.0000,0.1357,0.0257,0.1662,100.00,77.63,803,8.03,0.0,0.0,80.3,0.0,80.3
01:06:40,0.0000,0.1286,0.0257,0.1665,100.00,77.79,801,8.01,0.0,0.0,80.1,0.0,80.1
01:06:50,0.0000,0.1439,0.0257,0.1669,100.00,77.98,803,8.03,0.0,0.0,80.3,0.0,80.3
01:07:00,0.0000,0.1354,0.0257,0.1673,100.00,78.16,802,8.02,0.0,0.0,80.2,0.0,80.2
01:07:10,0.0000,0.0954,0.0257,0.1676,100.00,78.28,799,7.99,0.0,0.0,79.9,0.0,79.9
01:07:20,0.0000,0.1159,0.0257,0.1679,100.00,78.43,799,7.99,0.0,0.0,79.9,0.0,79.9
01:07:30,0.0000,0.1331,0.0257,0.1683,100.00,78.60,802,8.02,0.0,0.0,80.2,0.0,80.2
01:07:40,0.0000,0.1377,0.0257,0.1686,100.00,78.78,801,8.01,0.0,0.0,80.1,0.0,80.1
01:07:50,0.0000,0.1342,0.0257,0.1690,100.00,78.96,797,7.97,0.0,0.0,79.7,0.0,79.7
01:08:00,0.0000,0.1716,0.0257,0.1695,100.00,79.18,795,7.95,0.0,0.0,79.5,0.0,79.5
01:08:10,0.0000,0.1541,0.0257,0.1699,100.00,79.38,795,7.95,0.0,0.0,79.5,0.0,79.5
01:08:20,0.0000,0.1826,0.0257,0.1704,100.00,79.61,796,7.96,0.0,0.0,79.6,0.0,79.6
01:08:30,0.0000,0.1783,0.0257,0.1709,100.00,79.85,797,7.97,0.0,0.0,79.7,0.0,79.7
01:08:40,0.0000,0.1381,0.0257,0.1713,100.00,80.03,798,7.98,0.0,0.0,79.8,0.0,79.8
01:08:50,0.0000,0.1344,0.0257,0.1717,100.00,80.20,797,7.97,0.0,0.0,79.7,0.0,79.7
01:09:00,0.0000,0.1332,0.0257,0.1720,100.00,80.37,799,7.99,0.0,0.0,79.9,0.0,79.9
01:09:10,0.0000,0.1625,0.0257,0.1725,100.00,80.58,798,7.98,0.0,0.0,79.8,0.0,79.8
01:09:20,0.0000,0.1469,0.0257,0.1729,100.00,80.77,799,7.99,0.0,0.0,79.9,0.0,79.9
01:09:30,0.0000,0.1627,0.0257,0.1734,100.00,80.99,799,7.99,0.0,0.0,79.9,0.0,79.9
01:09:40,0.0000,0.1334,0.0257,0.1737,100.00,81.16,795,7.95,0.0,0.0,79.5,0.0,79.5
01:09:50,0.0000,0.1357,0.0257,0.1741,100.00,81.33,796,7.96,0.0,0.0,79.6,0.0,79.6
01:10:00,0.0000,0.1373,0.0257,0.1745,100.00,81.51,793,7.93,0.0,0.0,79.3,0.0,79.3
01:10:10,0.0000,0.1347,0.0257,0.1749,100.00,81.69,792,7.92,0.0,0.0,79.2,0.0,79.2
01:10:20,0.0000,0.0885,0.0257,0.1751,100.00,81.80,790,7.9,0.0,0.0,79.0,0.0,79.0
01:10:30,0.0000,0.1380,0.0257,0.1755,100.00,81.98,791,7.91,0.0,0.0,79.1,0.0,79.1
01:10:40,0.0000,0.1357,0.0257,0.1759,100.00,82.16,794,7.94,0.0,0.0,79.4,0.0,79.4
01:10:50,0.0000,0.1692,0.0257,0.1763,100.00,82.38,793,7.93,0.0,0.0,79.3,0.0,79.3
01:11:00,0.0000,0.1352,0.0257,0.1767,100.00,82.55,796,7.96,0.0,0.0,79.6,0.0,79.6
01:11:10,0.0000,0.1339,0.0257,0.1771,100.00,82.73,798,7.98,0.0,0.0,79.8,0.0,79.8
01:11:20,0.0000,0.1596,0.0257,0.1775,100.00,82.93,796,7.96,0.0,0.0,79.6,0.0,79.6
01:11:30,0.0000,0.1406,0.0257,0.1779,100.00,83.12,801,8.01,0.0,0.0,80.1,0.0,80.1
01:11:40,0.0000,0.1064,0.0257,0.1782,100.00,83.25,801,8.01,0.0,0.0,80.1,0.0,80.1
01:11:50,0.0000,0.1446,0.0257,0.1786,100.00,83.44,802,8.02,0.0,0.0,80.2,0.0,80.2
01:12:00,0.0000,0.1409,0.0257,0.1790,100.00,83.62,798,7.98,0.0,0.0,79.8,0.0,79.8
01:12:10,0.0000,0.1562,0.0257,0.1794,100.00,83.83,796,7.96,0.0,0.0,79.6,0.0,79.6
01:12:20,0.0000,0.1511,0.0257,0.1799,100.00,84.02,796,7.96,0.0,0.0,79.6,0.0,79.6
01:12:30,0.0000,0.1308,0.0257,0.1802,100.00,84.19,796,7.96,0.0,0.0,79.6,0.0,79.6
01:12:40,0.0000,0.1355,0.0257,0.1806,100.00,84.37,797,7.97,0.0,0.0,79.7,0.0,79.7
01:12:50,0.0000,0.1359,0.0257,0.1810,100.00,84.55,796,7.96,0.0,0.0,79.6,0.0,79.6
01:13:00,0.0000,0.1267,0.0257,0.1813,100.00,84.71,799,7.99,0.0,0.0,79.9,0.0,79.9
01:13:10,0.0000,0.1337,0.0257,0.1817,100.00,84.88,797,7.97,0.0,0.0,79.7,0.0,79.7
01:13:20,0.0000,0.1099,0.0257,0.1820,100.00,85.03,798,7.98,0.0,0.0,79.8,0.0,79.8
01:13:30,0.0000,0.1316,0.0257,0.1824,100.00,85.20,798,7.98,0.0,0.0,79.8,0.0,79.8
01:13:40,0.0000,0.1463,0.0257,0.1828,100.00,85.39,799,7.99,0.0,0.0,79.9,0.0,79.9
01:13:50,0.0000,0.1386,0.0257,0.1832,100.00,85.57,801,8.01,0.0,0.0,80.1,0.0,80.1
01:14:00,0.0000,0.1550,0.0257,0.1836,100.00,85.77,798,7.98,0.0,0.0,79.8,0.0,79.8
01:14:10,0.0000,0.1401,0.0257,0.1840,100.00,85.95,798,7.98,0.0,0.0,79.8,0.0,79.8
01:14:20,0.0000,0.1429,0.0257,0.1844,100.00,86.13,799,7.99,0.0,0.0,79.9,0.0,79.9
01:14:30,0.0000,0.1414,0.0257,0.1848,100.00,86.32,800,8.0,0.0,0.0,80.0,0.0,80.0
01:14:40,0.0000,0.1281,0.0257,0.1851,100.00,86.48,801,8.01,0.0,0.0,80.1,0.0,80.1
01:14:50,0.0000,0.1397,0.0257,0.1855,100.00,86.67,802,8.02,0.0,0.0,80.2,0.0,80.2
01:15:00,0.0000,0.1277,0.0257,0.1859,100.00,86.83,804,8.04,0.0,0.0,80.4,0.0,80.4
01:15:10,0.0000,0.1451,0.0257,0.1863,100.00,87.02,804,8.04,0.0,0.0,80.4,0.0,80.4
01:15:20,0.0000,0.1390,0.0257,0.1867,100.00,87.20,806,8.06,0.0,0.0,80.6,0.0,80.6
01:15:30,0.0000,0.1184,0.0257,0.1870,100.00,87.35,803,8.03,0.0,0.0,80.3,0.0,80.3
01:15:40,0.0000,0.1531,0.0257,0.1874,100.00,87.55,805,8.05,0.0,0.0,80.5,0.0,80.5
01:15:50,0.0000,0.1302,0.0257,0.1878,100.00,87.72,805,8.05,0.0,0.0,80.5,0.0,80.5
01:16:00,0.0000,0.1494,0.0257,0.1882,100.00,87.92,804,8.04,0.0,0.0,80.4,0.0,80.4
01:16:10,0.0000,0.0000,0.0257,0.1882,100.00,87.92,803,8.03,0.0,0.0,80.3,0.0,80.3
01:16:20,0.0000,0.1591,0.0257,0.1886,100.00,88.12,802,8.02,0.0,0.0,80.2,0.0,80.2
01:16:30,0.0000,0.1361,0.0257,0.1890,100.00,88.30,802,8.02,0.0,0.0,80.2,0.0,80.2
01:16:40,0.0000,0.1579,0.0257,0.1894,100.00,88.50,802,8.02,0.0,0.0,80.2,0.0,80.2
01:16:50,0.0000,0.1374,0.0257,0.1898,100.00,88.68,803,8.03,0.0,0.0,80.3,0.0,80.3
01:17:00,0.0000,0.1190,0.0257,0.1902,100.00,88.84,804,8.04,0.0,0.0,80.4,0.0,80.4
01:17:10,0.0000,0.1445,0.0257,0.1906,100.00,89.02,804,8.04,0.0,0.0,80.4,0.0,80.4
01:17:20,0.0000,0.1140,0.0257,0.1909,100.00,89.17,807,8.07,0.0,0.0,80.7,0.0,80.7
01:17:30,0.0000,0.1402,0.0257,0.1913,100.00,89.35,808,8.08,0.0,0.0,80.8,0.0,80.8
01:17:40,0.0000,0.1555,0.0257,0.1917,100.00,89.56,804,8.04,0.0,0.0,80.4,0.0,80.4
01:17:50,0.0000,0.1364,0.0257,0.1921,100.00,89.73,805,8.05,0.0,0.0,80.5,0.0,80.5
01:18:00,0.0000,0.1307,0.0257,0.1924,100.00,89.90,806,8.06,0.0,0.0,80.6,0.0,80.6
01:18:10,0.0000,0.1542,0.0257,0.1929,100.00,90.10,805,8.05,0.0,0.0,80.5,0.0,80.5
01:18:20,0.0000,0.1813,0.0257,0.1934,100.00,90.34,803,8.03,0.0,0.0,80.3,0.0,80.3
01:18:30,0.0000,0.1546,0.0257,0.1938,100.00,90.54,805,8.05,0.0,0.0,80.5,0.0,80.5
01:18:40,0.0000,0.1061,0.0257,0.1941,100.00,90.68,802,8.02,0.0,0.0,80.2,0.0,80.2
01:18:50,0.0000,0.1877,0.0257,0.1946,100.00,90.92,801,8.01,0.0,0.0,80.1,0.0,80.1
01:19:00,0.0000,0.1318,0.0257,0.1950,100.00,91.09,802,8.02,0.0,0.0,80.2,0.0,80.2
01:19:10,0.0000,0.1374,0.0257,0.1954,100.00,91.27,799,7.99,0.0,0.0,79.9,0.0,79.9
01:19:20,0.0000,0.1473,0.0257,0.1958,100.00,91.46,801,8.01,0.0,0.0,80.1,0.0,80.1
01:19:30,0.0000,0.1666,0.0257,0.1962,100.00,91.68,799,7.99,0.0,0.0,79.9,0.0,79.9
01:19:40,0.0000,0.1504,0.0257,0.1967,100.00,91.87,800,8.0,0.0,0.0,80.0,0.0,80.0
01:19:50,0.0000,0.1409,0.0257,0.1970,100.00,92.05,801,8.01,0.0,0.0,80.1,0.0,80.1
01:20:00,0.0000,0.1667,0.0257,0.1975,100.00,92.27,797,7.97,0.0,0.0,79.7,0.0,79.7
01:20:10,0.0000,0.1451,0.0257,0.1979,100.00,92.46,797,7.97,0.0,0.0,79.7,0.0,79.7
01:20:20,0.0000,0.1531,0.0257,0.1983,100.00,92.66,798,7.98,0.0,0.0,79.8,0.0,79.8
01:20:30,0.0000,0.1356,0.0257,0.1987,100.00,92.83,799,7.99,0.0,0.0,79.9,0.0,79.9
01:20:40,0.0000,0.1534,0.0257,0.1991,100.00,93.03,797,7.97,0.0,0.0,79.7,0.0,79.7
01:20:50,0.0000,0.1292,0.0257,0.1995,100.00,93.20,796,7.96,0.0,0.0,79.6,0.0,79.6
01:21:00,0.0000,0.1457,0.0257,0.1999,100.00,93.39,793,7.93,0.0,0.0,79.3,0.0,79.3
01:21:10,0.0000,0.0000,0.0257,0.1999,100.00,93.39,797,7.97,0.0,0.0,79.7,0.0,79.7
01:21:20,0.0000,0.1513,0.0257,0.2003,100.00,93.59,800,8.0,0.0,0.0,80.0,0.0,80.0
01:21:30,0.0000,0.1486,0.0257,0.2007,100.00,93.78,800,8.0,0.0,0.0,80.0,0.0,80.0
01:21:40,0.0000,0.1231,0.0257,0.2011,100.00,93.94,799,7.99,0.0,0.0,79.9,0.0,79.9
01:21:50,0.0000,0.1297,0.0257,0.2014,100.00,94.11,797,7.97,0.0,0.0,79.7,0.0,79.7
01:22:00,0.0000,0.0954,0.0257,0.2017,100.00,94.23,798,7.98,0.0,0.0,79.8,0.0,79.8
01:22:10,0.0000,0.1380,0.0257,0.2021,100.00,94.41,797,7.97,0.0,0.0,79.7,0.0,79.7
01:22:20,0.0000,0.1368,0.0257,0.2025,100.00,94.59,795,7.95,0.0,0.0,79.5,0.0,79.5
01:22:30,0.0000,0.1366,0.0257,0.2028,100.00,94.76,794,7.94,0.0,0.0,79.4,0.0,79.4
01:22:40,0.0000,0.1733,0.0257,0.2033,100.00,94.99,795,7.95,0.0,0.0,79.5,0.0,79.5
01:22:50,0.0000,0.1343,0.0257,0.2037,100.00,95.16,797,7.97,0.0,0.0,79.7,0.0,79.7
01:23:00,0.0000,0.1376,0.0257,0.2041,100.00,95.34,795,7.95,0.0,0.0,79.5,0.0,79.5
01:23:10,0.0000,0.1314,0.0257,0.2044,100.00,95.51,795,7.95,0.0,0.0,79.5,0.0,79.5
01:23:20,0.0000,0.0903,0.0257,0.2047,100.00,95.63,796,7.96,0.0,0.0,79.6,0.0,79.6
01:23:30,0.0000,0.1415,0.0257,0.2051,100.00,95.81,798,7.98,0.0,0.0,79.8,0.0,79.8
01:23:40,0.0000,0.1268,0.0257,0.2054,100.00,95.98,797,7.97,0.0,0.0,79.7,0.0,79.7
01:23:50,0.0000,0.1402,0.0257,0.2058,100.00,96.16,798,7.98,0.0,0.0,79.8,0.0,79.8
01:24:00,0.0000,0.1230,0.0257,0.2062,100.00,96.32,796,7.96,0.0,0.0,79.6,0.0,79.6
01:24:10,0.0000,0.1173,0.0257,0.2065,100.00,96.47,796,7.96,0.0,0.0,79.6,0.0,79.6
01:24:20,0.0000,0.0837,0.0257,0.2067,100.00,96.58,793,7.93,0.0,0.0,79.3,0.0,79.3
01:24:30,0.0000,0.1347,0.0257,0.2071,100.00,96.75,792,7.92,0.0,0.0,79.2,0.0,79.2
01:24:40,0.0000,0.1624,0.0257,0.2076,100.00,96.97,793,7.93,0.0,0.0,79.3,0.0,79.3
01:24:50,0.0000,0.1353,0.0257,0.2079,100.00,97.14,796,7.96,0.0,0.0,79.6,0.0,79.6
01:25:00,0.0000,0.1775,0.0257,0.2084,100.00,97.37,797,7.97,0.0,0.0,79.7,0.0,79.7
01:25:10,0.0000,0.1142,0.0257,0.2087,100.00,97.52,797,7.97,0.0,0.0,79.7,0.0,79.7
01:25:20,0.0000,0.1079,0.0257,0.2090,100.00,97.66,795,7.95,0.0,0.0,79.5,0.0,79.5
01:25:30,0.0000,0.1600,0.0257,0.2095,100.00,97.87,795,7.95,0.0,0.0,79.5,0.0,79.5
01:25:40,0.0000,0.0894,0.0257,0.2097,100.00,97.98,796,7.96,0.0,0.0,79.6,0.0,79.6
01:25:50,0.0000,0.1075,0.0257,0.2100,100.00,98.12,792,7.92,0.0,0.0,79.2,0.0,79.2
01:26:00,0.0000,0.1783,0.0257,0.2105,100.00,98.35,791,7.91,0.0,0.0,79.1,0.0,79.1
01:26:10,0.0000,0.1197,0.0257,0.2109,100.00,98.51,790,7.9,0.0,0.0,79.0,0.0,79.0
01:26:20,0.0000,0.1155,0.0257,0.2112,100.00,98.66,788,7.88,0.0,0.0,78.8,0.0,78.8
01:26:30,0.0000,0.1580,0.0257,0.2116,100.00,98.86,788,7.88,0.0,0.0,78.8,0.0,78.8
01:26:40,0.0000,0.1194,0.0257,0.2120,100.00,99.02,788,7.88,0.0,0.0,78.8,0.0,78.8
01:26:50,0.0000,0.1161,0.0257,0.2123,100.00,99.17,787,7.87,0.0,0.0,78.7,0.0,78.7
01:27:00,0.0000,0.1389,0.0257,0.2127,100.00,99.35,788,7.88,0.0,0.0,78.8,0.0,78.8
01:27:10,0.0000,0.1300,0.0257,0.2130,100.00,99.52,788,7.88,0.0,0.0,78.8,0.0,78.8
01:27:20,0.0000,0.1486,0.0257,0.2134,100.00,99.71,787,7.87,0.0,0.0,78.7,0.0,78.7
01:27:30,0.0000,0.0878,0.0257,0.2137,100.00,99.83,788,7.88,0.0,0.0,78.8,0.0,78.8
01:27:40,0.0000,0.1346,0.0257,0.2141,100.00,100.00,791,7.91,0.0,0.0,79.1,0.0,79.1
01:27:50,4.5220,1.9928,0.0507,0.2196,197.56,102.59,792,7.92,9.01,0.69,79.2,85.8,-6.6