File: output/4/foxelli-1.csv
Time,Voltage(V),Current(A),Energy(Wh),Capacity(Ah),Energy Proportion(%),Capacity Proportion(%),Irradiance(W/m2),Irradiance/100,Power(W),Efficiency(%)
00:00:00,2.8180,1.3067,0.0102,0.0036,0.21,0.22,783,7.83,3.68,0.47
00:00:30,2.7900,1.3025,0.0407,0.0145,0.83,0.88,780,7.8,3.63,0.46
00:01:00,2.7680,1.3132,0.0710,0.0254,1.44,1.55,781,7.81,3.63,0.46
00:01:30,2.7510,1.3178,0.1012,0.0364,2.05,2.22,781,7.81,3.63,0.46
00:02:00,2.7320,1.3185,0.1314,0.0474,2.66,2.89,778,7.78,3.6,0.46
00:02:30,4.3450,0.4176,0.1568,0.0559,3.18,3.40,774,7.74,1.81,0.23
00:03:00,2.7310,1.3311,0.1871,0.0669,3.80,4.08,776,7.76,3.64,0.46
00:03:30,5.1630,0.2373,0.2008,0.0713,4.07,4.34,775,7.75,1.23,0.16
00:04:00,2.7400,1.3479,0.2314,0.0825,4.69,5.03,774,7.74,3.69,0.47
00:04:30,2.7350,1.3597,0.2623,0.0938,5.32,5.71,775,7.75,3.72,0.48
00:05:00,2.7320,1.3714,0.2730,0.0977,5.54,5.95,774,7.74,3.75,0.48
00:05:30,2.7280,1.3853,0.2961,0.1058,6.01,6.44,773,7.73,3.78,0.48
00:06:00,5.0060,0.3423,0.3231,0.1144,6.55,6.97,776,7.76,1.71,0.22
00:06:30,2.7290,1.4047,0.3340,0.1183,6.77,7.21,774,7.74,3.83,0.49
00:07:00,5.1570,0.0093,0.3554,0.1262,7.21,7.69,773,7.73,0.05,0.01
00:07:30,2.7300,1.4125,0.3770,0.1341,7.65,8.17,770,7.7,3.86,0.5
00:08:00,2.7230,1.4138,0.4090,0.1458,8.30,8.88,772,7.72,3.85,0.49
00:08:30,2.7150,1.4203,0.4412,0.1577,8.95,9.60,774,7.74,3.86,0.49
00:09:00,5.0610,0.3833,0.4680,0.1666,9.49,10.15,774,7.74,1.94,0.25
00:09:30,2.7130,1.4274,0.5003,0.1785,10.15,10.87,774,7.74,3.87,0.5
00:10:00,2.7080,1.4336,0.5326,0.1904,10.80,11.60,774,7.74,3.88,0.5
00:10:30,5.1530,0.0520,0.5424,0.1925,11.00,11.73,776,7.76,0.27,0.03
00:11:00,2.7200,1.4344,0.5750,0.2044,11.66,12.45,774,7.74,3.9,0.5
00:11:30,2.7090,1.4405,0.6075,0.2164,12.32,13.18,778,7.78,3.9,0.5
00:12:00,4.6620,0.7544,0.6390,0.2265,12.96,13.80,775,7.75,3.52,0.45
00:12:30,5.1530,0.0092,0.6518,0.2303,13.22,14.03,776,7.76,0.05,0.01
00:13:00,2.7260,1.4353,0.6844,0.2423,13.88,14.76,774,7.74,3.91,0.5
00:13:30,2.7220,1.4286,0.7169,0.2542,14.54,15.48,773,7.73,3.89,0.5
00:14:00,2.7180,1.4312,0.7493,0.2661,15.20,16.21,774,7.74,3.89,0.5
00:14:30,3.6400,1.2355,0.7743,0.2733,15.71,16.65,773,7.73,4.5,0.58
00:15:00,2.7260,1.4287,0.7961,0.2813,16.15,17.14,771,7.71,3.89,0.5
00:15:30,2.7220,1.4316,0.8286,0.2932,16.81,17.86,773,7.73,3.9,0.5
00:16:00,2.7160,1.4299,0.8610,0.3051,17.47,18.59,773,7.73,3.88,0.5
00:16:30,2.7050,1.4286,0.8933,0.3171,18.12,19.31,771,7.71,3.86,0.5
00:17:00,5.1520,0.0092,0.9044,0.3211,18.34,19.56,774,7.74,0.05,0.01
00:17:30,5.1510,0.1358,0.9250,0.3285,18.76,20.01,765,7.65,0.7,0.09
00:18:00,5.1440,0.0652,0.9474,0.3366,19.22,20.50,765,7.65,0.34,0.04
00:18:30,2.7210,1.4168,0.9796,0.3484,19.87,21.22,766,7.66,3.86,0.5
00:19:00,5.1540,0.0091,1.0011,0.3563,20.31,21.70,766,7.66,0.05,0.01
00:19:30,5.1540,0.0091,1.0115,0.3586,20.52,21.84,762,7.62,0.05,0.01
00:20:00,5.1510,0.0093,1.0228,0.3624,20.75,22.08,764,7.64,0.05,0.01
00:20:30,2.7210,1.4212,1.0444,0.3704,21.18,22.56,768,7.68,3.87,0.5
00:21:00,4.9980,0.4284,1.0506,0.3716,21.31,22.64,764,7.64,2.14,0.28
00:21:30,2.7260,1.4166,1.0828,0.3834,21.96,23.36,759,7.59,3.86,0.5
00:22:00,2.7280,1.4189,1.1044,0.3913,22.40,23.84,765,7.65,3.87,0.5
00:22:30,2.7190,1.4210,1.1261,0.3992,22.84,24.32,765,7.65,3.86,0.5
00:23:00,3.4150,0.9228,1.1502,0.4067,23.33,24.77,763,7.63,3.15,0.41
00:23:30,2.7250,1.4174,1.1718,0.4146,23.77,25.25,764,7.64,3.86,0.5
00:24:00,2.7210,1.4134,1.2040,0.4264,24.42,25.97,761,7.61,3.85,0.5
00:24:30,5.1510,0.0739,1.2264,0.4344,24.88,26.46,757,7.57,0.38,0.05
00:25:00,5.1520,0.0092,1.2349,0.4377,25.05,26.66,757,7.57,0.05,0.01
00:25:30,2.7300,1.4105,1.2540,0.4439,25.44,27.04,759,7.59,3.85,0.5
00:26:00,2.7280,1.4118,1.2861,0.4556,26.09,27.76,758,7.58,3.85,0.5
00:26:30,5.1530,0.0092,1.2946,0.4588,26.26,27.95,754,7.54,0.05,0.01
00:27:00,5.1520,0.0091,1.3059,0.4629,26.49,28.20,759,7.59,0.05,0.01
00:27:30,2.7320,1.4091,1.3379,0.4746,27.14,28.91,758,7.58,3.85,0.5
00:28:00,2.7260,1.4115,1.3700,0.4864,27.79,29.63,759,7.59,3.85,0.5
00:28:30,2.7250,1.4128,1.4021,0.4982,28.44,30.35,759,7.59,3.85,0.5
00:29:00,5.1520,0.0091,1.4169,0.5029,28.74,30.63,760,7.6,0.05,0.01
00:29:30,2.7150,1.4129,1.4463,0.5139,29.34,31.31,762,7.62,3.84,0.5
00:30:00,5.1510,0.0091,1.4690,0.5218,29.80,31.78,759,7.59,0.05,0.01
00:30:30,2.7330,1.4077,1.5010,0.5335,30.45,32.50,757,7.57,3.85,0.5
00:31:00,2.7290,1.4058,1.5330,0.5452,31.10,33.21,755,7.55,3.84,0.5
00:31:30,2.7220,1.4033,1.5649,0.5569,31.74,33.93,755,7.55,3.82,0.5
00:32:00,2.6850,1.2839,1.5891,0.5652,32.23,34.43,755,7.55,3.45,0.45
00:32:30,2.6350,1.1032,1.6171,0.5741,32.80,34.97,748,7.48,2.91,0.39
00:33:00,5.1510,0.0091,1.6384,0.5819,33.23,35.45,749,7.49,0.05,0.01
00:33:30,2.7290,1.4024,1.6598,0.5897,33.67,35.92,751,7.51,3.83,0.5
00:34:00,3.6790,0.7773,1.6890,0.5997,34.26,36.53,750,7.5,2.86,0.38
00:34:30,2.7360,1.3980,1.7209,0.6113,34.91,37.24,751,7.51,3.82,0.5
00:35:00,2.7290,1.3948,1.7527,0.6229,35.55,37.95,750,7.5,3.81,0.5
00:35:30,2.7310,1.3991,1.7740,0.6307,35.99,38.42,749,7.49,3.82,0.5
00:36:00,2.7320,1.3997,1.8059,0.6424,36.63,39.13,750,7.5,3.82,0.5
00:36:30,5.1510,0.0092,1.8167,0.6463,36.85,39.37,745,7.45,0.05,0.01
00:37:00,2.7320,1.3915,1.8477,0.6577,37.48,40.06,743,7.43,3.8,0.51
00:37:30,2.7320,1.3932,1.8793,0.6693,38.12,40.77,746,7.46,3.81,0.51
00:38:00,5.1500,0.0093,1.9006,0.6770,38.55,41.24,746,7.46,0.05,0.01
00:38:30,2.7290,1.3911,1.9219,0.6848,38.98,41.72,743,7.43,3.8,0.51
00:39:00,2.7330,1.3898,1.9462,0.6932,39.48,42.23,743,7.43,3.8,0.51
00:39:30,2.7310,1.3874,1.9757,0.7036,40.08,42.86,740,7.4,3.79,0.51
00:40:00,5.1500,0.0092,1.9767,0.7038,40.10,42.88,744,7.44,0.05,0.01
00:40:30,2.7300,1.3968,1.9876,0.7077,40.32,43.11,745,7.45,3.81,0.51
00:41:00,2.7160,1.3956,2.0089,0.7155,40.75,43.59,746,7.46,3.79,0.5
00:41:30,2.7360,1.3887,2.0406,0.7271,41.39,44.29,742,7.42,3.8,0.51
00:42:00,2.7310,1.3816,2.0634,0.7351,41.85,44.78,739,7.39,3.77,0.51
00:42:30,4.3440,0.8711,2.0949,0.7453,42.49,45.40,742,7.42,3.78,0.5
00:43:00,2.7300,1.3837,2.1265,0.7568,43.13,46.10,738,7.38,3.78,0.51
00:43:30,5.1510,0.0093,2.1476,0.7645,43.56,46.57,737,7.37,0.05,0.01
00:44:00,5.1520,0.0092,2.1573,0.7681,43.76,46.79,737,7.37,0.05,0.01
00:44:30,4.4040,0.8502,2.1681,0.7706,43.98,46.94,730,7.3,3.74,0.51
00:45:00,2.6950,1.2749,2.1857,0.7772,44.33,47.34,730,7.3,3.44,0.47
00:45:30,5.1530,0.0091,2.1963,0.7810,44.55,47.58,725,7.25,0.05,0.01
00:46:00,2.7320,1.3673,2.2228,0.7898,45.09,48.11,728,7.28,3.74,0.51
00:46:30,5.0630,0.3608,2.2486,0.7984,45.61,48.64,724,7.24,1.83,0.25
00:47:00,5.0780,0.2737,2.2706,0.8055,46.06,49.07,720,7.2,1.39,0.19
00:47:30,3.4770,1.2125,2.2928,0.8126,46.51,49.50,723,7.23,4.22,0.58
00:48:00,5.1510,0.0092,2.3111,0.8195,46.88,49.92,725,7.25,0.05,0.01
00:48:30,2.7330,1.3697,2.3423,0.8309,47.51,50.62,727,7.27,3.74,0.51
00:49:00,2.7320,1.3751,2.3735,0.8423,48.15,51.31,730,7.3,3.76,0.51
00:49:30,2.7380,1.3794,2.4049,0.8538,48.78,52.01,731,7.31,3.78,0.51
00:50:00,5.1510,0.0092,2.4229,0.8604,49.15,52.41,709,7.09,0.05,0.01
00:50:30,1.8760,0.0216,2.4233,0.8606,49.15,52.43,112.2,1.122,0.04,0.04
00:51:00,1.8980,0.0259,2.4237,0.8608,49.16,52.44,84.8,0.848,0.05,0.06
00:51:30,1.8750,0.0227,2.4240,0.8610,49.17,52.45,79.9,0.799,0.04,0.05
00:52:00,1.9110,0.0191,2.4243,0.8611,49.18,52.46,78.7,0.787,0.04,0.05
00:52:30,1.9090,0.0259,2.4250,0.8614,49.19,52.47,79.6,0.796,0.05,0.06
00:53:00,1.8880,0.0331,2.4254,0.8616,49.20,52.49,95.6,0.956,0.06,0.06
00:53:30,1.9310,0.0406,2.4258,0.8618,49.21,52.50,249,2.49,0.08,0.03
00:54:00,2.7780,1.2688,2.4369,0.8658,49.43,52.74,743,7.43,3.52,0.47
00:54:30,2.7870,1.3791,2.4689,0.8773,50.08,53.44,746,7.46,3.84,0.51
00:55:00,2.7650,1.3874,2.5009,0.8888,50.73,54.14,748,7.48,3.84,0.51
00:55:30,2.7480,1.3889,2.5328,0.9004,51.38,54.85,744,7.44,3.82,0.51
00:56:00,2.7230,1.3806,2.5539,0.9081,51.80,55.32,739,7.39,3.76,0.5
00:56:30,2.6670,1.0002,2.5718,0.9147,52.17,55.72,732,7.32,2.67,0.36
00:57:00,5.0850,0.2670,2.5885,0.9197,52.51,56.03,726,7.26,1.36,0.19
00:57:30,2.7370,1.3462,2.6155,0.9286,53.05,56.57,720,7.2,3.68,0.51
00:58:00,2.8130,1.3383,2.6329,0.9337,53.41,56.88,714,7.14,3.76,0.52
00:58:30,2.7390,1.3310,2.6633,0.9448,54.02,57.56,713,7.13,3.65,0.51
00:59:00,2.7440,1.3319,2.6937,0.9559,54.64,58.23,712,7.12,3.65,0.51
00:59:30,5.1560,0.0092,2.6979,0.9567,54.72,58.28,709,7.09,0.05,0.01
01:00:00,5.1550,0.0092,2.7082,0.9605,54.94,58.51,710,7.1,0.05,0.01
01:00:30,2.7410,1.3306,2.7386,0.9715,55.55,59.18,712,7.12,3.65,0.51
01:01:00,2.7420,1.3317,2.7690,0.9826,56.17,59.86,713,7.13,3.65,0.51
01:01:30,2.7430,1.3329,2.7894,0.9901,56.58,60.31,712,7.12,3.66,0.51
01:02:00,2.7390,1.3330,2.8199,1.0012,57.20,60.99,713,7.13,3.65,0.51
01:02:30,2.5840,1.0822,2.8379,1.0079,57.57,61.40,710,7.1,2.8,0.39
01:03:00,2.7500,1.3264,2.8683,1.0190,58.18,62.07,704,7.04,3.65,0.51
01:03:30,2.7430,1.3256,2.8886,1.0264,58.59,62.52,706,7.06,3.64,0.51
01:04:00,2.7390,1.3265,2.9089,1.0338,59.01,62.97,704,7.04,3.63,0.51
01:04:30,2.7960,1.3257,2.9263,1.0399,59.36,63.35,704,7.04,3.71,0.52
01:05:00,2.7440,1.3249,2.9510,1.0481,59.86,63.85,704,7.04,3.64,0.51
01:05:30,2.5600,1.0137,2.9784,1.0583,60.41,64.47,702,7.02,2.6,0.37
01:06:00,2.7400,1.3206,3.0085,1.0693,61.03,65.14,704,7.04,3.62,0.51
01:06:30,2.7410,1.3259,3.0347,1.0790,61.56,65.73,702,7.02,3.63,0.51
01:07:00,5.1540,0.0092,3.0466,1.0826,61.80,65.95,701,7.01,0.05,0.01
01:07:30,3.5160,0.5428,3.0622,1.0878,62.11,66.27,702,7.02,1.91,0.27
01:08:00,3.7490,1.0990,3.0838,1.0945,62.55,66.68,702,7.02,4.12,0.58
01:08:30,5.1300,0.1422,3.0960,1.0986,62.80,66.93,700,7.0,0.73,0.1
01:09:00,5.1540,0.0092,3.1138,1.1053,63.16,67.33,699,6.99,0.05,0.01
01:09:30,5.0940,0.2942,3.1211,1.1067,63.31,67.42,699,6.99,1.5,0.21
01:10:00,5.1550,0.0093,3.1430,1.1139,63.75,67.86,697,6.97,0.05,0.01
01:10:30,4.7750,0.5449,3.1505,1.1155,63.91,67.95,691,6.91,2.6,0.37
01:11:00,5.1550,0.0092,3.1607,1.1192,64.11,68.18,684,6.84,0.05,0.01
01:11:30,2.7500,1.2869,3.1805,1.1263,64.51,68.61,681,6.81,3.54,0.51
01:12:00,2.7500,1.2892,3.2100,1.1371,65.11,69.27,681,6.81,3.55,0.52
01:12:30,2.7480,1.2831,3.2201,1.1407,65.32,69.49,678,6.78,3.53,0.52
01:13:00,2.7500,1.2799,3.2395,1.1477,65.71,69.92,678,6.78,3.52,0.51
01:13:30,2.7500,1.2829,3.2689,1.1584,66.31,70.57,678,6.78,3.53,0.52
01:14:00,5.1120,0.2259,3.2820,1.1626,66.57,70.83,678,6.78,1.15,0.17
01:14:30,4.7250,0.6015,3.2998,1.1679,66.93,71.15,677,6.77,2.84,0.42
01:15:00,5.1540,0.0950,3.3138,1.1720,67.22,71.39,677,6.77,0.49,0.07
01:15:30,2.7250,1.1941,3.3276,1.1773,67.50,71.72,672,6.72,3.25,0.48
01:16:00,5.1560,0.0091,3.3419,1.1817,67.79,71.99,673,6.73,0.05,0.01
01:16:30,5.1550,0.0091,3.3534,1.1851,68.02,72.19,674,6.74,0.05,0.01
01:17:00,2.7520,1.2758,3.3752,1.1931,68.46,72.68,674,6.74,3.51,0.52
01:17:30,5.1560,0.0091,3.3905,1.1980,68.77,72.98,671,6.71,0.05,0.01
01:18:00,2.7510,1.2691,3.4101,1.2051,69.17,73.41,668,6.68,3.49,0.52
01:18:30,5.1570,0.0091,3.4218,1.2089,69.41,73.65,662,6.62,0.05,0.01
01:19:00,4.2990,0.4080,3.4351,1.2136,69.68,73.93,667,6.67,1.75,0.26
01:19:30,5.1040,0.2092,3.4479,1.2177,69.94,74.18,668,6.68,1.07,0.16
01:20:00,5.1560,0.0092,3.4655,1.2242,70.29,74.58,662,6.62,0.05,0.01
01:20:30,4.1240,0.4693,3.4806,1.2291,70.60,74.87,661,6.61,1.94,0.29
01:21:00,2.6420,0.3203,3.4866,1.2307,70.72,74.97,656,6.56,0.85,0.13
01:21:30,5.1570,0.0232,3.4967,1.2342,70.93,75.19,654,6.54,0.12,0.02
01:22:00,5.1570,0.0092,3.5147,1.2395,71.29,75.51,654,6.54,0.05,0.01
01:22:30,5.1560,0.0091,3.5287,1.2440,71.58,75.78,653,6.53,0.05,0.01
01:23:00,2.7590,1.2406,3.5573,1.2544,72.16,76.41,655,6.55,3.42,0.52
01:23:30,5.0310,0.3813,3.5723,1.2589,72.46,76.69,655,6.55,1.92,0.29
01:24:00,5.1570,0.0092,3.5829,1.2620,72.68,76.88,654,6.54,0.05,0.01
01:24:30,5.1560,0.0091,3.5970,1.2664,72.96,77.14,655,6.55,0.05,0.01
01:25:00,5.0250,0.3236,3.6156,1.2709,73.34,77.42,651,6.51,1.63,0.25
01:25:30,5.1560,0.0091,3.6160,1.2710,73.35,77.43,652,6.52,0.05,0.01
01:26:00,3.1820,0.4873,3.6239,1.2730,73.51,77.55,648,6.48,1.55,0.24
01:26:30,5.1560,0.0091,3.6289,1.2745,73.61,77.64,644,6.44,0.05,0.01
01:27:00,5.1560,0.0092,3.6488,1.2813,74.01,78.05,645,6.45,0.05,0.01
01:27:30,2.7590,1.2286,3.6649,1.2873,74.34,78.42,648,6.48,3.39,0.52
01:28:00,4.7870,0.4646,3.6807,1.2920,74.66,78.71,647,6.47,2.22,0.34
01:28:30,5.1570,0.0421,3.6852,1.2933,74.75,78.79,645,6.45,0.22,0.03
01:29:00,5.1570,0.0092,3.6975,1.2980,75.00,79.07,643,6.43,0.05,0.01
01:29:30,4.7860,0.5341,3.7114,1.3021,75.28,79.32,643,6.43,2.56,0.39
01:30:00,4.6350,0.3736,3.7223,1.3056,75.50,79.54,642,6.42,1.73,0.27
01:30:30,5.1570,0.0090,3.7320,1.3091,75.70,79.75,638,6.38,0.05,0.01
01:31:00,5.1290,0.1172,3.7342,1.3095,75.75,79.77,638,6.38,0.6,0.09
01:31:30,2.3690,0.2978,3.7465,1.3137,76.00,80.03,640,6.4,0.71,0.11
01:32:00,5.1570,0.0091,3.7566,1.3161,76.20,80.17,640,6.4,0.05,0.01
01:32:30,5.1570,0.0092,3.7666,1.3196,76.40,80.39,640,6.4,0.05,0.01
01:33:00,2.7640,1.2136,3.7765,1.3231,76.60,80.60,637,6.37,3.35,0.52
01:33:30,2.7650,1.2118,3.7875,1.3268,76.83,80.83,637,6.37,3.35,0.52
01:34:00,5.1570,0.0092,3.7971,1.3302,77.02,81.03,636,6.36,0.05,0.01
01:34:30,3.5180,0.4989,3.8096,1.3331,77.28,81.21,635,6.35,1.76,0.27
01:35:00,2.7670,1.2149,3.8192,1.3366,77.47,81.42,636,6.36,3.36,0.52
01:35:30,5.1580,0.0091,3.8312,1.3412,77.71,81.70,633,6.33,0.05,0.01
01:36:00,2.5110,0.8418,3.8415,1.3453,77.92,81.95,623,6.23,2.11,0.34
01:36:30,2.7700,1.1897,3.8555,1.3499,78.21,82.23,624,6.24,3.3,0.52
01:37:00,5.1590,0.0091,3.8559,1.3500,78.21,82.24,624,6.24,0.05,0.01
01:37:30,5.1580,0.0093,3.8754,1.3560,78.61,82.60,625,6.25,0.05,0.01
01:38:00,2.9220,1.1985,3.8872,1.3602,78.85,82.86,626,6.26,3.5,0.55
01:38:30,5.1590,0.0091,3.8960,1.3634,79.03,83.05,622,6.22,0.05,0.01
01:39:00,2.2590,0.4996,3.8994,1.3648,79.10,83.14,621,6.21,1.13,0.18
01:39:30,5.1580,0.0648,3.9104,1.3683,79.32,83.35,618,6.18,0.33,0.05
01:40:00,2.7710,1.1799,3.9197,1.3716,79.51,83.55,616,6.16,3.27,0.53
01:40:30,5.0660,0.3317,3.9277,1.3732,79.67,83.65,612,6.12,1.68,0.27
01:41:00,4.2300,0.7802,3.9556,1.3812,80.24,84.14,617,6.17,3.3,0.53
01:41:30,5.1580,0.0336,3.9654,1.3846,80.44,84.35,620,6.2,0.17,0.03
01:42:00,5.1050,0.2489,3.9872,1.3919,80.88,84.79,623,6.23,1.27,0.2
01:42:30,3.7230,0.9852,4.0081,1.3982,81.30,85.18,617,6.17,3.67,0.59
01:43:00,4.8000,0.4951,4.0242,1.4029,81.63,85.46,614,6.14,2.38,0.38
01:43:30,4.3520,0.3613,4.0438,1.4084,82.03,85.80,613,6.13,1.57,0.25
01:44:00,5.1590,0.0092,4.0578,1.4126,82.31,86.05,619,6.19,0.05,0.01
01:44:30,4.2800,0.3848,4.0666,1.4149,82.49,86.19,618,6.18,1.65,0.26
01:45:00,5.1590,0.0091,4.0739,1.4166,82.64,86.30,615,6.15,0.05,0.01
01:45:30,5.1600,0.0091,4.0795,1.4177,82.75,86.37,609,6.09,0.05,0.01
01:46:00,2.1330,0.4274,4.0852,1.4196,82.87,86.48,607,6.07,0.91,0.15
01:46:30,5.1600,0.0092,4.0856,1.4196,82.87,86.48,605,6.05,0.05,0.01
01:47:00,2.7410,0.3192,4.0933,1.4217,83.03,86.61,604,6.04,0.87,0.14
01:47:30,5.1600,0.0092,4.1018,1.4248,83.20,86.79,605,6.05,0.05,0.01
01:48:00,2.2820,0.5071,4.1071,1.4270,83.31,86.93,608,6.08,1.16,0.19
01:48:30,5.1590,0.0092,4.1077,1.4271,83.32,86.94,604,6.04,0.05,0.01
01:49:00,2.7930,1.1611,4.1169,1.4304,83.51,87.14,604,6.04,3.24,0.53
01:49:30,4.4880,0.6309,4.1292,1.4332,83.76,87.31,600,6.0,2.83,0.47
01:50:00,5.1600,0.0091,4.1391,1.4357,83.96,87.46,599,5.99,0.05,0.01
01:50:30,5.1600,0.0091,4.1438,1.4367,84.05,87.52,598,5.98,0.05,0.01
01:51:00,5.1600,0.0091,4.1442,1.4367,84.06,87.52,594,5.94,0.05,0.01
01:51:30,5.1590,0.0510,4.1460,1.4371,84.10,87.54,596,5.96,0.26,0.04
01:52:00,3.2580,0.4193,4.1505,1.4384,84.19,87.62,594,5.94,1.37,0.23
01:52:30,3.4370,0.3789,4.1590,1.4405,84.36,87.75,595,5.95,1.3,0.22
01:53:00,5.0790,0.2524,4.1653,1.4424,84.49,87.87,590,5.9,1.28,0.21
01:53:30,5.1570,0.1737,4.1803,1.4459,84.79,88.08,590,5.9,0.9,0.15
01:54:00,5.1590,0.0268,4.1853,1.4469,84.90,88.14,593,5.93,0.14,0.02
01:54:30,5.1590,0.0091,4.1859,1.4471,84.91,88.15,595,5.95,0.05,0.01
01:55:00,5.1590,0.0092,4.1864,1.4471,84.92,88.16,592,5.92,0.05,0.01
01:55:30,5.1590,0.0091,4.1867,1.4472,84.93,88.16,592,5.92,0.05,0.01
01:56:00,5.1540,0.1552,4.1892,1.4477,84.98,88.19,590,5.9,0.8,0.13
01:56:30,5.1600,0.0092,4.1934,1.4494,85.06,88.30,591,5.91,0.05,0.01
01:57:00,5.1460,0.0913,4.1950,1.4497,85.09,88.31,592,5.92,0.47,0.08
01:57:30,5.1600,0.0092,4.1958,1.4501,85.11,88.34,592,5.92,0.05,0.01
01:58:00,5.1590,0.0092,4.1976,1.4508,85.15,88.38,593,5.93,0.05,0.01
01:58:30,4.8890,0.3353,4.2024,1.4518,85.24,88.44,594,5.94,1.64,0.27
01:59:00,5.1590,0.0090,4.2118,1.4550,85.43,88.64,593,5.93,0.05,0.01
01:59:30,2.1760,0.4379,4.2329,1.4618,85.86,89.05,592,5.92,0.95,0.16
02:00:00,2.7380,1.0358,4.2416,1.4649,86.04,89.24,596,5.96,2.84,0.47
02:00:30,5.1590,0.0091,4.2536,1.4678,86.28,89.41,593,5.93,0.05,0.01
02:01:00,5.1600,0.0091,4.2558,1.4682,86.33,89.44,593,5.93,0.05,0.01
02:01:30,2.1050,0.1932,4.2622,1.4699,86.46,89.55,590,5.9,0.41,0.07
02:02:00,5.1590,0.0092,4.2652,1.4705,86.52,89.58,588,5.88,0.05,0.01
02:02:30,5.1590,0.0092,4.2656,1.4706,86.53,89.59,587,5.87,0.05,0.01
02:03:00,5.1600,0.0091,4.2677,1.4710,86.57,89.61,582,5.82,0.05,0.01
02:03:30,5.1600,0.0092,4.2730,1.4727,86.67,89.71,580,5.8,0.05,0.01
02:04:00,5.1600,0.0091,4.2775,1.4739,86.77,89.79,577,5.77,0.05,0.01
02:04:30,4.9430,0.3848,4.2842,1.4753,86.90,89.87,576,5.76,1.9,0.33
02:05:00,3.1340,0.5314,4.2891,1.4768,87.00,89.96,571,5.71,1.67,0.29
02:05:30,5.1590,0.0093,4.2910,1.4772,87.04,89.99,567,5.67,0.05,0.01
02:06:00,5.1590,0.0091,4.2955,1.4782,87.13,90.05,565,5.65,0.05,0.01
02:06:30,5.1590,0.0091,4.2969,1.4785,87.16,90.07,565,5.65,0.05,0.01
02:07:00,5.1590,0.0091,4.3014,1.4797,87.25,90.14,561,5.61,0.05,0.01
02:07:30,4.0230,0.3394,4.3055,1.4807,87.33,90.20,559,5.59,1.37,0.24
02:08:00,5.1590,0.0092,4.3093,1.4815,87.41,90.25,558,5.58,0.05,0.01
02:08:30,5.1590,0.0091,4.3128,1.4824,87.48,90.30,556,5.56,0.05,0.01
02:09:00,5.1580,0.0676,4.3168,1.4831,87.56,90.35,551,5.51,0.35,0.06
02:09:30,3.5840,0.3680,4.3207,1.4842,87.64,90.41,549,5.49,1.32,0.24
02:10:00,5.1590,0.0092,4.3253,1.4851,87.74,90.47,550,5.5,0.05,0.01
02:10:30,5.1590,0.0091,4.3298,1.4861,87.83,90.53,551,5.51,0.05,0.01
02:11:00,4.6430,0.3973,4.3386,1.4881,88.01,90.65,550,5.5,1.84,0.33
02:11:30,5.1590,0.0091,4.3430,1.4890,88.10,90.70,549,5.49,0.05,0.01
02:12:00,5.1590,0.0092,4.3471,1.4898,88.18,90.76,547,5.47,0.05,0.01
02:12:30,4.2750,0.3155,4.3550,1.4917,88.34,90.87,546,5.46,1.35,0.24
02:13:00,5.1310,0.1451,4.3573,1.4922,88.39,90.90,544,5.44,0.74,0.13
02:13:30,5.1600,0.0092,4.3625,1.4937,88.49,90.99,543,5.43,0.05,0.01
02:14:00,5.1600,0.0091,4.3637,1.4939,88.52,91.01,541,5.41,0.05,0.01
02:14:30,4.5540,0.3088,4.3679,1.4948,88.60,91.06,539,5.39,1.41,0.26
02:15:00,5.1590,0.0091,4.3724,1.4961,88.69,91.14,530,5.3,0.05,0.01
02:15:30,5.1600,0.0091,4.3734,1.4963,88.71,91.15,533,5.33,0.05,0.01
02:16:00,3.2110,0.4672,4.3797,1.4980,88.84,91.25,538,5.38,1.5,0.28
02:16:30,5.1600,0.0091,4.3837,1.4991,88.92,91.32,541,5.41,0.05,0.01
02:17:00,5.1600,0.0091,4.3882,1.5000,89.01,91.38,540,5.4,0.05,0.01
02:17:30,3.3110,0.5739,4.3955,1.5020,89.16,91.50,540,5.4,1.9,0.35
02:18:00,5.1600,0.0091,4.3976,1.5024,89.20,91.52,540,5.4,0.05,0.01
02:18:30,5.1600,0.0091,4.4000,1.5029,89.25,91.55,537,5.37,0.05,0.01
02:19:00,4.8950,0.2949,4.4042,1.5037,89.34,91.61,535,5.35,1.44,0.27
02:19:30,5.1610,0.0091,4.4080,1.5048,89.41,91.67,534,5.34,0.05,0.01
02:20:00,5.1600,0.0373,4.4128,1.5062,89.51,91.76,533,5.33,0.19,0.04
02:20:30,4.2080,0.2959,4.4165,1.5071,89.59,91.81,533,5.33,1.25,0.23
02:21:00,5.1610,0.0091,4.4201,1.5079,89.66,91.86,531,5.31,0.05,0.01
02:21:30,5.1610,0.0091,4.4205,1.5080,89.67,91.86,529,5.29,0.05,0.01
02:22:00,4.1940,0.3698,4.4251,1.5091,89.76,91.93,528,5.28,1.55,0.29
02:22:30,5.1610,0.0091,4.4282,1.5099,89.82,91.98,528,5.28,0.05,0.01
02:23:00,5.1590,0.1247,4.4308,1.5104,89.88,92.01,528,5.28,0.64,0.12
02:23:30,5.0940,0.1885,4.4338,1.5110,89.94,92.05,525,5.25,0.96,0.18
02:24:00,5.1610,0.0092,4.4384,1.5124,90.03,92.13,522,5.22,0.05,0.01
02:24:30,5.1610,0.0091,4.4431,1.5133,90.13,92.19,520,5.2,0.05,0.01
02:25:00,5.1610,0.0092,4.4439,1.5135,90.14,92.20,519,5.19,0.05,0.01
02:25:30,5.1610,0.0092,4.4470,1.5141,90.20,92.24,515,5.15,0.05,0.01
02:26:00,4.3470,0.3041,4.4509,1.5150,90.28,92.29,512,5.12,1.32,0.26
02:26:30,5.1610,0.0092,4.4528,1.5154,90.32,92.31,507,5.07,0.05,0.01
02:27:00,3.3550,0.4167,4.4616,1.5177,90.50,92.46,506,5.06,1.4,0.27
02:27:30,5.1610,0.0092,4.4657,1.5186,90.58,92.51,504,5.04,0.05,0.01
02:28:00,4.4540,0.2843,4.4701,1.5196,90.67,92.57,504,5.04,1.27,0.25
02:28:30,5.1610,0.0092,4.4711,1.5198,90.69,92.58,503,5.03,0.05,0.01
02:29:00,5.1610,0.0092,4.4715,1.5198,90.70,92.59,499,4.99,0.05,0.01
02:29:30,4.2400,0.2666,4.4770,1.5211,90.81,92.66,497,4.97,1.13,0.23
02:30:00,5.1610,0.0091,4.4777,1.5212,90.83,92.67,501,5.01,0.05,0.01
02:30:30,3.5980,0.3868,4.4856,1.5231,90.99,92.78,495,4.95,1.39,0.28
02:31:00,5.1610,0.0091,4.4898,1.5243,91.07,92.86,494,4.94,0.05,0.01
02:31:30,3.3450,0.4553,4.4978,1.5265,91.24,92.99,494,4.94,1.52,0.3
02:32:00,5.1610,0.0092,4.5011,1.5275,91.30,93.05,492,4.92,0.05,0.01
02:32:30,5.1600,0.1169,4.5061,1.5286,91.40,93.12,495,4.95,0.6,0.12
02:33:00,5.1620,0.0091,4.5097,1.5295,91.48,93.18,496,4.96,0.05,0.01
02:33:30,3.2740,0.3857,4.5165,1.5315,91.61,93.30,502,5.02,1.26,0.25
02:34:00,5.1620,0.0092,4.5208,1.5324,91.70,93.35,504,5.04,0.05,0.01
02:34:30,5.1620,0.0091,4.5212,1.5325,91.71,93.36,503,5.03,0.05,0.01
02:35:00,5.1620,0.0092,4.5216,1.5326,91.72,93.36,509,5.09,0.05,0.01
02:35:30,5.1620,0.0091,4.5237,1.5330,91.76,93.39,516,5.16,0.05,0.01
02:36:00,3.8680,0.3847,4.5319,1.5352,91.93,93.52,515,5.15,1.49,0.29
02:36:30,5.1620,0.0091,4.5370,1.5367,92.03,93.61,521,5.21,0.05,0.01
02:37:00,5.1620,0.0091,4.5409,1.5375,92.11,93.66,503,5.03,0.05,0.01
02:37:30,4.7410,0.2790,4.5448,1.5383,92.19,93.71,518,5.18,1.32,0.25
02:38:00,5.1620,0.0092,4.5463,1.5386,92.22,93.73,515,5.15,0.05,0.01
02:38:30,3.4750,0.3299,4.5533,1.5405,92.36,93.84,510,5.1,1.15,0.22
02:39:00,5.1620,0.0092,4.5567,1.5412,92.43,93.89,505,5.05,0.05,0.01
02:39:30,5.0500,0.2842,4.5637,1.5428,92.57,93.98,503,5.03,1.44,0.28
02:40:00,5.1620,0.0091,4.5644,1.5429,92.59,93.99,490,4.9,0.05,0.01
02:40:30,5.1600,0.1498,4.5697,1.5441,92.69,94.06,496,4.96,0.77,0.15
02:41:00,5.1620,0.0090,4.5726,1.5449,92.75,94.11,497,4.97,0.05,0.01
02:41:30,5.1600,0.0724,4.5771,1.5459,92.84,94.17,495,4.95,0.37,0.07
02:42:00,5.1610,0.0092,4.5775,1.5459,92.85,94.18,486,4.86,0.05,0.01
02:42:30,5.1000,0.1688,4.5802,1.5465,92.91,94.21,481,4.81,0.86,0.18
02:43:00,5.1610,0.0092,4.5814,1.5467,92.93,94.22,478,4.78,0.05,0.01
02:43:30,5.1610,0.0091,4.5822,1.5469,92.95,94.23,477,4.77,0.05,0.01
02:44:00,5.1610,0.0091,4.5857,1.5477,93.02,94.28,474,4.74,0.05,0.01
02:44:30,4.5060,0.3122,4.5935,1.5495,93.18,94.39,470,4.7,1.41,0.3
02:45:00,5.1610,0.0091,4.5979,1.5504,93.27,94.45,465,4.65,0.05,0.01
02:45:30,5.1610,0.0092,4.6019,1.5512,93.35,94.50,464,4.64,0.05,0.01
02:46:00,5.1620,0.0092,4.6053,1.5521,93.42,94.55,460,4.6,0.05,0.01
02:46:30,5.1620,0.0092,4.6082,1.5529,93.48,94.60,456,4.56,0.05,0.01
02:47:00,5.1620,0.0092,4.6118,1.5539,93.55,94.66,453,4.53,0.05,0.01
02:47:30,2.4080,0.3637,4.6145,1.5550,93.60,94.73,452,4.52,0.88,0.19
02:48:00,2.5800,0.3202,4.6172,1.5560,93.66,94.79,447,4.47,0.83,0.18
02:48:30,5.1620,0.0091,4.6176,1.5560,93.67,94.79,445,4.45,0.05,0.01
02:49:00,5.1620,0.0091,4.6204,1.5570,93.72,94.85,443,4.43,0.05,0.01
02:49:30,5.1620,0.0092,4.6268,1.5585,93.85,94.94,443,4.43,0.05,0.01
02:50:00,2.6190,0.2371,4.6288,1.5592,93.89,94.98,439,4.39,0.62,0.14
02:50:30,5.1630,0.0091,4.6292,1.5592,93.90,94.99,437,4.37,0.05,0.01
02:51:00,5.1620,0.0092,4.6315,1.5600,93.95,95.03,436,4.36,0.05,0.01
02:51:30,5.1620,0.0091,4.6333,1.5605,93.98,95.07,432,4.32,0.05,0.01
02:52:00,5.1620,0.0092,4.6358,1.5615,94.04,95.13,432,4.32,0.05,0.01
02:52:30,2.6560,0.2288,4.6378,1.5622,94.07,95.17,429,4.29,0.61,0.14
02:53:00,5.1620,0.0091,4.6382,1.5623,94.08,95.17,429,4.29,0.05,0.01
02:53:30,5.1620,0.0091,4.6412,1.5629,94.14,95.21,426,4.26,0.05,0.01
02:54:00,5.1620,0.0091,4.6459,1.5639,94.24,95.27,424,4.24,0.05,0.01
02:54:30,5.1620,0.0089,4.6505,1.5649,94.33,95.33,420,4.2,0.05,0.01
02:55:00,5.1400,0.1240,4.6555,1.5660,94.43,95.40,416,4.16,0.64,0.15
02:55:30,4.9490,0.2443,4.6621,1.5674,94.57,95.48,416,4.16,1.21,0.29
02:56:00,3.3450,0.2283,4.6645,1.5681,94.62,95.52,419,4.19,0.76,0.18
02:56:30,5.1620,0.0091,4.6649,1.5681,94.62,95.53,417,4.17,0.05,0.01
02:57:00,5.1620,0.0091,4.6670,1.5689,94.67,95.58,417,4.17,0.05,0.01
02:57:30,5.1620,0.0090,4.6715,1.5700,94.76,95.64,415,4.15,0.05,0.01
02:58:00,5.1620,0.0092,4.6747,1.5710,94.82,95.70,413,4.13,0.05,0.01
02:58:30,5.1620,0.0091,4.6773,1.5718,94.88,95.75,411,4.11,0.05,0.01
02:59:00,5.0640,0.1378,4.6820,1.5727,94.97,95.81,409,4.09,0.7,0.17
02:59:30,2.6000,0.2565,4.6841,1.5735,95.01,95.85,407,4.07,0.67,0.16
03:00:00,2.8360,0.1773,4.6858,1.5741,95.05,95.89,404,4.04,0.5,0.12
03:00:30,5.1610,0.0691,4.6870,1.5743,95.07,95.90,403,4.03,0.36,0.09
03:01:00,5.1620,0.0091,4.6899,1.5749,95.13,95.94,402,4.02,0.05,0.01
03:01:30,5.1620,0.0091,4.6918,1.5755,95.17,95.98,404,4.04,0.05,0.01
03:02:00,5.1620,0.0090,4.6944,1.5763,95.22,96.02,404,4.04,0.05,0.01
03:02:30,5.1620,0.0091,4.6986,1.5773,95.31,96.09,403,4.03,0.05,0.01
03:03:00,5.1620,0.0091,4.7023,1.5781,95.38,96.14,403,4.03,0.05,0.01
03:03:30,5.1630,0.0092,4.7056,1.5789,95.45,96.18,403,4.03,0.05,0.01
03:04:00,5.1630,0.0091,4.7082,1.5797,95.50,96.23,402,4.02,0.05,0.01
03:04:30,3.5100,0.2548,4.7110,1.5804,95.56,96.28,401,4.01,0.89,0.22
03:05:00,3.7740,0.2662,4.7143,1.5812,95.63,96.33,399,3.99,1.0,0.25
03:05:30,3.5640,0.1680,4.7162,1.5818,95.66,96.36,398,3.98,0.6,0.15
03:06:00,5.1630,0.0092,4.7166,1.5818,95.67,96.36,397,3.97,0.05,0.01
03:06:30,4.6170,0.1867,4.7199,1.5827,95.74,96.42,391,3.91,0.86,0.22
03:07:00,5.1630,0.0090,4.7229,1.5833,95.80,96.45,390,3.9,0.05,0.01
03:07:30,5.1640,0.0092,4.7233,1.5834,95.81,96.46,388,3.88,0.05,0.01
03:08:00,5.1640,0.0091,4.7237,1.5835,95.82,96.46,386,3.86,0.05,0.01
03:08:30,5.1640,0.0091,4.7241,1.5835,95.83,96.47,387,3.87,0.05,0.01
03:09:00,5.1640,0.0090,4.7245,1.5836,95.83,96.47,386,3.86,0.05,0.01
03:09:30,2.1330,0.0705,4.7279,1.5849,95.90,96.55,388,3.88,0.15,0.04
03:10:00,3.6050,0.1924,4.7331,1.5866,96.01,96.65,385,3.85,0.69,0.18
03:10:30,5.1640,0.0279,4.7378,1.5876,96.10,96.71,381,3.81,0.14,0.04
03:11:00,5.1640,0.0091,4.7382,1.5877,96.11,96.72,377,3.77,0.05,0.01
03:11:30,5.1640,0.0092,4.7386,1.5878,96.12,96.72,372,3.72,0.05,0.01
03:12:00,3.5430,0.1646,4.7422,1.5887,96.19,96.78,371,3.71,0.58,0.15
03:12:30,3.1430,0.2828,4.7472,1.5904,96.29,96.89,374,3.74,0.89,0.24
03:13:00,5.1640,0.0092,4.7476,1.5905,96.30,96.89,372,3.72,0.05,0.01
03:13:30,5.1640,0.0091,4.7479,1.5906,96.31,96.90,370,3.7,0.05,0.01
03:14:00,5.1640,0.0091,4.7483,1.5907,96.32,96.90,363,3.63,0.05,0.01
03:14:30,2.7330,0.1626,4.7502,1.5913,96.36,96.94,364,3.64,0.44,0.12
03:15:00,5.1650,0.0091,4.7529,1.5920,96.41,96.98,365,3.65,0.05,0.01
03:15:30,5.1650,0.0091,4.7533,1.5920,96.42,96.98,366,3.66,0.05,0.01
03:16:00,5.1650,0.0091,4.7537,1.5921,96.43,96.99,313,3.13,0.05,0.02
03:16:30,4.5060,0.0665,4.7548,1.5923,96.45,97.00,256,2.56,0.3,0.12
03:17:00,5.1650,0.0088,4.7554,1.5925,96.46,97.01,298,2.98,0.05,0.02
03:17:30,3.5840,0.1814,4.7575,1.5931,96.50,97.05,345,3.45,0.65,0.19
03:18:00,5.1650,0.0092,4.7593,1.5937,96.54,97.08,341,3.41,0.05,0.01
03:18:30,5.1650,0.0090,4.7617,1.5945,96.59,97.14,339,3.39,0.05,0.01
03:19:00,5.1650,0.0088,4.7637,1.5950,96.63,97.17,300,3.0,0.05,0.02
03:19:30,5.1650,0.0091,4.7641,1.5951,96.64,97.17,322,3.22,0.05,0.02
03:20:00,4.3690,0.1682,4.7664,1.5956,96.68,97.20,345,3.45,0.73,0.21
03:20:30,5.1650,0.0091,4.7685,1.5963,96.73,97.24,334,3.34,0.05,0.01
03:21:00,5.1650,0.0092,4.7689,1.5963,96.73,97.25,346,3.46,0.05,0.01
03:21:30,4.5080,0.1444,4.7709,1.5968,96.78,97.27,338,3.38,0.65,0.19
03:22:00,5.1650,0.0092,4.7743,1.5978,96.84,97.34,342,3.42,0.05,0.01
03:22:30,5.1650,0.0091,4.7747,1.5979,96.85,97.34,341,3.41,0.05,0.01
03:23:00,3.3780,0.1513,4.7783,1.5990,96.92,97.41,338,3.38,0.51,0.15
03:23:30,5.1650,0.0091,4.7787,1.5991,96.93,97.41,336,3.36,0.05,0.01
03:24:00,2.9510,0.1701,4.7823,1.6002,97.01,97.48,334,3.34,0.5,0.15
03:24:30,5.1650,0.0092,4.7827,1.6003,97.01,97.49,332,3.32,0.05,0.01
03:25:00,5.1650,0.0093,4.7831,1.6004,97.02,97.49,330,3.3,0.05,0.02
03:25:30,5.0360,0.0967,4.7865,1.6012,97.09,97.54,328,3.28,0.49,0.15
03:26:00,5.1650,0.0091,4.7869,1.6012,97.10,97.54,328,3.28,0.05,0.02
03:26:30,3.7080,0.2098,4.7911,1.6024,97.18,97.61,326,3.26,0.78,0.24
03:27:00,5.1650,0.0090,4.7927,1.6028,97.22,97.64,324,3.24,0.05,0.02
03:27:30,5.1650,0.0088,4.7931,1.6029,97.22,97.65,323,3.23,0.05,0.02
03:28:00,5.1650,0.0092,4.7966,1.6040,97.30,97.71,322,3.22,0.05,0.02
03:28:30,5.1650,0.0091,4.7970,1.6041,97.30,97.72,321,3.21,0.05,0.02
03:29:00,5.1600,0.0165,4.7975,1.6042,97.31,97.73,319,3.19,0.09,0.03
03:29:30,5.1650,0.0091,4.8009,1.6053,97.38,97.79,318,3.18,0.05,0.02
03:30:00,5.1650,0.0092,4.8013,1.6054,97.39,97.80,318,3.18,0.05,0.02
03:30:30,2.2080,0.1237,4.8064,1.6068,97.50,97.88,319,3.19,0.27,0.08
03:31:00,5.1650,0.0089,4.8077,1.6071,97.52,97.90,318,3.18,0.05,0.02
03:31:30,3.0620,0.1875,4.8095,1.6077,97.56,97.93,317,3.17,0.57,0.18
03:32:00,5.1650,0.0091,4.8110,1.6081,97.59,97.96,314,3.14,0.05,0.02
03:32:30,5.1650,0.0092,4.8114,1.6082,97.60,97.97,313,3.13,0.05,0.02
03:33:00,2.9130,0.2381,4.8136,1.6089,97.64,98.01,312,3.12,0.69,0.22
03:33:30,5.1650,0.0088,4.8157,1.6094,97.68,98.04,309,3.09,0.05,0.02
03:34:00,3.3620,0.0962,4.8183,1.6102,97.74,98.09,307,3.07,0.32,0.1
03:34:30,5.1650,0.0093,4.8187,1.6102,97.74,98.09,305,3.05,0.05,0.02
03:35:00,5.1650,0.0091,4.8212,1.6110,97.80,98.14,303,3.03,0.05,0.02
03:35:30,5.1650,0.0091,4.8228,1.6114,97.83,98.16,301,3.01,0.05,0.02
03:36:00,5.1650,0.0091,4.8246,1.6119,97.86,98.19,299,2.99,0.05,0.02
03:36:30,4.7590,0.1031,4.8278,1.6125,97.93,98.23,298,2.98,0.49,0.16
03:37:00,5.1650,0.0092,4.8296,1.6130,97.97,98.26,296,2.96,0.05,0.02
03:37:30,3.5530,0.1180,4.8326,1.6139,98.03,98.32,295,2.95,0.42,0.14
03:38:00,4.8900,0.0875,4.8356,1.6145,98.09,98.35,294,2.94,0.43,0.14
03:38:30,5.1650,0.0092,4.8373,1.6149,98.12,98.38,294,2.94,0.05,0.02
03:39:00,5.1650,0.0091,4.8389,1.6155,98.15,98.42,292,2.92,0.05,0.02
03:39:30,5.1470,0.1007,4.8419,1.6162,98.22,98.45,292,2.92,0.52,0.18
03:40:00,2.1720,0.0752,4.8441,1.6168,98.26,98.49,292,2.92,0.16,0.05
03:40:30,1.9980,0.0722,4.8448,1.6170,98.27,98.51,291,2.91,0.14,0.05
03:41:00,2.0540,0.0885,4.8455,1.6173,98.29,98.52,291,2.91,0.18,0.06
03:41:30,5.1620,0.0085,4.8459,1.6174,98.30,98.53,289,2.89,0.04,0.01
03:42:00,5.1650,0.0092,4.8472,1.6177,98.32,98.55,288,2.88,0.05,0.02
03:42:30,5.1650,0.0087,4.8478,1.6180,98.33,98.56,286,2.86,0.04,0.01
03:43:00,5.1650,0.0092,4.8493,1.6185,98.37,98.60,286,2.86,0.05,0.02
03:43:30,4.1440,0.0839,4.8529,1.6194,98.44,98.65,285,2.85,0.35,0.12
03:44:00,2.2280,0.0789,4.8536,1.6197,98.45,98.67,283,2.83,0.18,0.06
03:44:30,2.3330,0.1047,4.8545,1.6200,98.47,98.69,282,2.82,0.24,0.08
03:45:00,4.4700,0.1401,4.8565,1.6205,98.51,98.71,279,2.79,0.63,0.22
03:45:30,5.1650,0.0091,4.8578,1.6207,98.54,98.73,278,2.78,0.05,0.02
03:46:00,5.1650,0.0090,4.8609,1.6215,98.60,98.78,277,2.77,0.05,0.02
03:46:30,5.1650,0.0091,4.8620,1.6219,98.62,98.80,276,2.76,0.05,0.02
03:47:00,3.5930,0.1308,4.8641,1.6226,98.67,98.84,276,2.76,0.47,0.17
03:47:30,4.2830,0.1337,4.8660,1.6230,98.70,98.87,274,2.74,0.57,0.21
03:48:00,5.1650,0.0086,4.8676,1.6233,98.74,98.89,273,2.73,0.04,0.01
03:48:30,5.1650,0.0091,4.8692,1.6238,98.77,98.92,272,2.72,0.05,0.02
03:49:00,5.1660,0.0087,4.8698,1.6240,98.78,98.93,271,2.71,0.04,0.01
03:49:30,5.1660,0.0091,4.8715,1.6245,98.82,98.96,268,2.68,0.05,0.02
03:50:00,5.1660,0.0090,4.8722,1.6247,98.83,98.98,267,2.67,0.05,0.02
03:50:30,2.8960,0.1554,4.8737,1.6252,98.86,99.00,265,2.65,0.45,0.17
03:51:00,2.1020,0.0807,4.8744,1.6255,98.87,99.02,264,2.64,0.17,0.06
03:51:30,5.1660,0.0092,4.8761,1.6259,98.91,99.05,263,2.63,0.05,0.02
03:52:00,5.1660,0.0092,4.8767,1.6262,98.92,99.06,261,2.61,0.05,0.02
03:52:30,5.1660,0.0087,4.8792,1.6268,98.97,99.10,260,2.6,0.04,0.02
03:53:00,5.1660,0.0091,4.8805,1.6272,99.00,99.13,260,2.6,0.05,0.02
03:53:30,2.3260,0.1646,4.8820,1.6278,99.03,99.16,259,2.59,0.38,0.15
03:54:00,5.1610,0.0197,4.8828,1.6279,99.04,99.17,259,2.59,0.1,0.04
03:54:30,5.1660,0.0089,4.8844,1.6283,99.08,99.19,259,2.59,0.05,0.02
03:55:00,3.3820,0.0845,4.8863,1.6289,99.11,99.23,258,2.58,0.29,0.11
03:55:30,5.1660,0.0091,4.8869,1.6291,99.13,99.24,257,2.57,0.05,0.02
03:56:00,2.6290,0.1617,4.8891,1.6300,99.17,99.30,257,2.57,0.43,0.17
03:56:30,5.1660,0.0092,4.8905,1.6304,99.20,99.32,256,2.56,0.05,0.02
03:57:00,5.1660,0.0091,4.8917,1.6306,99.23,99.33,255,2.55,0.05,0.02
03:57:30,3.4650,0.0936,4.8935,1.6311,99.26,99.36,254,2.54,0.32,0.12
03:58:00,5.1660,0.0091,4.8943,1.6314,99.28,99.38,253,2.53,0.05,0.02
03:58:30,3.9020,0.1124,4.8967,1.6321,99.33,99.42,252,2.52,0.44,0.17
03:59:00,5.1660,0.0092,4.8977,1.6325,99.35,99.45,251,2.51,0.05,0.02
03:59:30,5.1650,0.0091,4.8993,1.6329,99.38,99.47,250,2.5,0.05,0.02
04:00:00,4.5780,0.0740,4.9011,1.6333,99.42,99.50,249,2.49,0.34,0.14
04:00:30,5.1660,0.0092,4.9018,1.6336,99.43,99.51,247,2.47,0.05,0.02
04:01:00,2.0740,0.0503,4.9028,1.6340,99.45,99.54,245,2.45,0.1,0.04
04:01:30,4.3940,0.0991,4.9043,1.6343,99.48,99.56,241,2.41,0.44,0.18
04:02:00,5.1660,0.0091,4.9049,1.6346,99.49,99.57,241,2.41,0.05,0.02
04:02:30,5.1660,0.0092,4.9055,1.6347,99.50,99.59,240,2.4,0.05,0.02
04:03:00,5.1660,0.0092,4.9060,1.6350,99.52,99.60,239,2.39,0.05,0.02
04:03:30,5.1660,0.0092,4.9073,1.6355,99.54,99.63,238,2.38,0.05,0.02
04:04:00,2.5380,0.1175,4.9095,1.6361,99.59,99.67,238,2.38,0.3,0.12
04:04:30,5.1660,0.0092,4.9100,1.6363,99.60,99.68,237,2.37,0.05,0.02
04:05:00,5.1660,0.0239,4.9115,1.6367,99.63,99.70,234,2.34,0.12,0.05
04:05:30,5.1660,0.0092,4.9119,1.6367,99.64,99.71,233,2.33,0.05,0.02
04:06:00,5.1660,0.0091,4.9137,1.6371,99.67,99.73,230,2.3,0.05,0.02
04:06:30,2.0890,0.0521,4.9146,1.6375,99.69,99.75,227,2.27,0.11,0.05
04:07:00,5.1670,0.0085,4.9153,1.6376,99.70,99.76,225,2.25,0.04,0.02
04:07:30,3.4010,0.1260,4.9171,1.6381,99.74,99.79,223,2.23,0.43,0.19
04:08:00,5.1670,0.0087,4.9176,1.6382,99.75,99.80,223,2.23,0.04,0.02
04:08:30,5.1670,0.0092,4.9181,1.6384,99.76,99.81,222,2.22,0.05,0.02
04:09:00,5.1670,0.0091,4.9187,1.6387,99.77,99.82,220,2.2,0.05,0.02
04:09:30,5.1670,0.0091,4.9213,1.6392,99.82,99.86,217,2.17,0.05,0.02
04:10:00,5.1670,0.0091,4.9236,1.6398,99.87,99.89,216,2.16,0.05,0.02
04:10:30,5.1670,0.0091,4.9257,1.6403,99.92,99.92,214,2.14,0.05,0.02
04:11:00,5.1670,0.0090,4.9263,1.6405,99.93,99.93,212,2.12,0.05,0.02
04:11:30,5.1670,0.0091,4.9269,1.6407,99.94,99.95,210,2.1,0.05,0.02
04:12:00,5.1670,0.0091,4.9275,1.6409,99.95,99.96,210,2.1,0.05,0.02
04:12:30,2.7760,0.1325,4.9296,1.6415,99.99,100.00,209,2.09,0.37,0.18
04:13:00,2.3630,0.1289,4.9307,1.6419,100.02,100.02,210,2.1,0.3,0.14