File: output/4/nekteck-2.csv
Time,Voltage(V),Current(A),Energy(Wh),Capacity(Ah),Energy Proportion(%),Capacity Proportion(%),Irradiance(W/m2),Power(W),Sunlight Level
00:00:00,4.6700,1.9906,0.0258,0.0055,0.14,0.14,858.0,9.3,8.58
00:00:20,4.6610,1.9910,0.0774,0.0166,0.42,0.41,858.0,9.28,8.58
00:00:40,4.6600,1.9911,0.1289,0.0276,0.70,0.68,860.0,9.28,8.6
00:01:00,4.6580,1.9912,0.1805,0.0387,0.99,0.96,857.0,9.28,8.57
00:01:20,4.6560,1.9907,0.2320,0.0498,1.27,1.23,853.0,9.27,8.53
00:01:40,4.6550,1.9908,0.2834,0.0608,1.55,1.50,857.0,9.27,8.57
00:02:00,4.6520,1.9898,0.3349,0.0719,1.83,1.78,848.0,9.26,8.48
00:02:20,4.6510,1.9898,0.3863,0.0829,2.11,2.05,842.0,9.25,8.42
00:02:40,4.6510,1.9898,0.4377,0.0940,2.39,2.32,838.0,9.25,8.38
00:03:00,4.6510,1.9895,0.4891,0.1050,2.67,2.60,843.0,9.25,8.43
00:03:20,4.6510,1.9897,0.5405,0.1161,2.95,2.87,851.0,9.25,8.51
00:03:40,4.6490,1.9897,0.5919,0.1272,3.23,3.14,842.0,9.25,8.42
00:04:00,4.6490,1.9890,0.6433,0.1382,3.51,3.42,840.0,9.25,8.4
00:04:20,4.6480,1.9898,0.6947,0.1493,3.79,3.69,842.0,9.25,8.42
00:04:40,4.6480,1.9900,0.7460,0.1603,4.07,3.96,844.0,9.25,8.44
00:05:00,4.6470,1.9898,0.7974,0.1714,4.36,4.24,849.0,9.25,8.49
00:05:20,4.6460,1.9895,0.8488,0.1824,4.64,4.51,843.0,9.24,8.43
00:05:40,4.6470,1.9900,0.9001,0.1935,4.92,4.78,836.0,9.25,8.36
00:06:00,4.6470,1.9896,0.9515,0.2045,5.20,5.06,855.0,9.25,8.55
00:06:20,4.6380,1.9899,1.0028,0.2156,5.48,5.33,721.0,9.23,7.21
00:06:40,2.7550,1.4020,1.0205,0.2221,5.57,5.49,461.0,3.86,4.61
00:07:00,2.5720,0.6121,1.0325,0.2267,5.64,5.60,183.0,1.57,1.83
00:07:20,2.5470,0.5530,1.0404,0.2298,5.68,5.68,163.2,1.41,1.632
00:07:40,2.5530,0.5770,1.0485,0.2329,5.73,5.76,166.1,1.47,1.661
00:08:00,4.6540,1.9894,1.0818,0.2413,5.91,5.96,759.0,9.26,7.59
00:08:20,4.6520,1.9895,1.1332,0.2523,6.19,6.24,863.0,9.26,8.63
00:08:40,4.6500,1.9901,1.1846,0.2634,6.47,6.51,862.0,9.25,8.62
00:09:00,4.6500,1.9902,1.2360,0.2744,6.75,6.78,867.0,9.25,8.67
00:09:20,4.6490,1.9903,1.2874,0.2855,7.03,7.06,874.0,9.25,8.74
00:09:40,4.6480,1.9909,1.3389,0.2966,7.31,7.33,873.0,9.25,8.73
00:10:00,4.6450,1.9903,1.3902,0.3076,7.59,7.60,870.0,9.24,8.7
00:10:20,4.6450,1.9903,1.4416,0.3187,7.87,7.88,870.0,9.24,8.7
00:10:40,4.6430,1.9900,1.4929,0.3297,8.15,8.15,879.0,9.24,8.79
00:11:00,4.6410,1.9896,1.5442,0.3408,8.43,8.42,877.0,9.23,8.77
00:11:20,4.6410,1.9904,1.5955,0.3518,8.71,8.70,879.0,9.24,8.79
00:11:40,4.6410,1.9898,1.6468,0.3629,9.00,8.97,889.0,9.23,8.89
00:12:00,4.6400,1.9896,1.6981,0.3740,9.28,9.24,895.0,9.23,8.95
00:12:20,4.6400,1.9894,1.7494,0.3850,9.56,9.52,880.0,9.23,8.8
00:12:40,4.6390,1.9897,1.8007,0.3961,9.84,9.79,880.0,9.23,8.8
00:13:00,4.6350,1.9898,1.8519,0.4071,10.12,10.06,792.0,9.22,7.92
00:13:20,2.5950,0.7312,1.8633,0.4114,10.18,10.17,220.0,1.9,2.2
00:13:40,2.5850,0.7167,1.8736,0.4154,10.23,10.27,214.0,1.85,2.14
00:14:00,2.6420,0.9530,1.8862,0.4202,10.30,10.39,243.0,2.52,2.43
00:14:20,4.6470,1.9883,1.9291,0.4306,10.54,10.64,901.0,9.24,9.01
00:14:40,4.6440,1.9896,1.9804,0.4417,10.82,10.92,891.0,9.24,8.91
00:15:00,4.6420,1.9895,2.0317,0.4527,11.10,11.19,884.0,9.24,8.84
00:15:20,4.6420,1.9895,2.0830,0.4638,11.38,11.46,873.0,9.24,8.73
00:15:40,4.6430,1.9894,2.1343,0.4748,11.66,11.73,871.0,9.24,8.71
00:16:00,4.6410,1.9901,2.1856,0.4859,11.94,12.01,854.0,9.24,8.54
00:16:20,4.6400,1.9897,2.2369,0.4969,12.22,12.28,848.0,9.23,8.48
00:16:40,4.6390,1.9901,2.2882,0.5080,12.50,12.55,841.0,9.23,8.41
00:17:00,4.6390,1.9904,2.3395,0.5190,12.78,12.83,838.0,9.23,8.38
00:17:20,4.6380,1.9896,2.3908,0.5301,13.06,13.10,835.0,9.23,8.35
00:17:40,4.6360,1.9895,2.4420,0.5411,13.34,13.37,833.0,9.22,8.33
00:18:00,4.6350,1.9892,2.4933,0.5522,13.62,13.65,826.0,9.22,8.26
00:18:20,4.6350,1.9897,2.5445,0.5632,13.90,13.92,825.0,9.22,8.25
00:18:40,4.6360,1.9895,2.5958,0.5743,14.18,14.19,826.0,9.22,8.26
00:19:00,4.6350,1.9892,2.6470,0.5853,14.46,14.47,828.0,9.22,8.28
00:19:20,4.6340,1.9895,2.6982,0.5964,14.74,14.74,824.0,9.22,8.24
00:19:40,4.6320,1.9896,2.7494,0.6075,15.02,15.01,821.0,9.22,8.21
00:20:00,4.6310,1.9890,2.8006,0.6185,15.30,15.29,812.0,9.21,8.12
00:20:20,4.6300,1.9895,2.8518,0.6296,15.58,15.56,812.0,9.21,8.12
00:20:40,4.6300,1.9892,2.9029,0.6406,15.86,15.83,807.0,9.21,8.07
00:21:00,4.6300,1.9890,2.9541,0.6517,16.14,16.11,806.0,9.21,8.06
00:21:20,4.6300,1.9891,3.0053,0.6627,16.41,16.38,803.0,9.21,8.03
00:21:40,4.6310,1.9895,3.0564,0.6738,16.69,16.65,805.0,9.21,8.05
00:22:00,4.6320,1.9894,3.1076,0.6848,16.97,16.93,798.0,9.21,7.98
00:22:20,4.6330,1.9895,3.1588,0.6959,17.25,17.20,803.0,9.22,8.03
00:22:40,4.6340,1.9899,3.2100,0.7069,17.53,17.47,805.0,9.22,8.05
00:23:00,4.6340,1.9896,3.2613,0.7180,17.81,17.74,808.0,9.22,8.08
00:23:20,4.6350,1.9896,3.3125,0.7290,18.09,18.02,806.0,9.22,8.06
00:23:40,4.6360,1.9894,3.3637,0.7401,18.37,18.29,811.0,9.22,8.11
00:24:00,4.6360,1.9913,3.4150,0.7511,18.65,18.56,813.0,9.23,8.13
00:24:20,4.6360,1.9900,3.4663,0.7622,18.93,18.84,819.0,9.23,8.19
00:24:40,4.6350,1.9906,3.5175,0.7733,19.21,19.11,820.0,9.23,8.2
00:25:00,4.6350,1.9901,3.5688,0.7843,19.49,19.38,819.0,9.22,8.19
00:25:20,4.6350,1.9900,3.6200,0.7954,19.77,19.66,822.0,9.22,8.22
00:25:40,4.6360,1.9898,3.6713,0.8064,20.05,19.93,818.0,9.22,8.18
00:26:00,4.6380,1.9902,3.7225,0.8175,20.33,20.20,818.0,9.23,8.18
00:26:20,4.6390,1.9902,3.7738,0.8285,20.61,20.48,823.0,9.23,8.23
00:26:40,4.6390,1.9905,3.8251,0.8396,20.89,20.75,827.0,9.23,8.27
00:27:00,4.6390,1.9905,3.8764,0.8506,21.17,21.02,833.0,9.23,8.33
00:27:20,4.6390,1.9910,3.9277,0.8617,21.45,21.30,838.0,9.24,8.38
00:27:40,4.6390,1.9904,3.9790,0.8728,21.73,21.57,840.0,9.23,8.4
00:28:00,4.6390,1.9904,4.0303,0.8838,22.01,21.84,841.0,9.23,8.41
00:28:20,4.6390,1.9904,4.0816,0.8949,22.29,22.12,842.0,9.23,8.42
00:28:40,4.6390,1.9904,4.1329,0.9059,22.57,22.39,845.0,9.23,8.45
00:29:00,4.6390,1.9903,4.1842,0.9170,22.85,22.66,848.0,9.23,8.48
00:29:20,4.6390,1.9906,4.2355,0.9281,23.13,22.94,848.0,9.23,8.48
00:29:40,4.6380,1.9902,4.2868,0.9391,23.41,23.21,847.0,9.23,8.47
00:30:00,4.6370,1.9905,4.3381,0.9502,23.69,23.48,847.0,9.23,8.47
00:30:20,4.6380,1.9899,4.3893,0.9612,23.97,23.76,844.0,9.23,8.44
00:30:40,4.6380,1.9901,4.4406,0.9723,24.25,24.03,841.0,9.23,8.41
00:31:00,4.6380,1.9907,4.4919,0.9833,24.53,24.30,849.0,9.23,8.49
00:31:20,4.6380,1.9906,4.5432,0.9944,24.81,24.58,851.0,9.23,8.51
00:31:40,4.6370,1.9904,4.5945,1.0055,25.09,24.85,850.0,9.23,8.5
00:32:00,4.6360,1.9904,4.6458,1.0165,25.38,25.12,855.0,9.23,8.55
00:32:20,4.6360,1.9902,4.6970,1.0276,25.66,25.40,853.0,9.23,8.53
00:32:40,4.6350,1.9901,4.7483,1.0386,25.93,25.67,855.0,9.22,8.55
00:33:00,4.6340,1.9902,4.7995,1.0497,26.21,25.94,855.0,9.22,8.55
00:33:20,4.6320,1.9899,4.8507,1.0607,26.49,26.22,848.0,9.22,8.48
00:33:40,4.6320,1.9900,4.9019,1.0718,26.77,26.49,843.0,9.22,8.43
00:34:00,4.6320,1.9897,4.9531,1.0829,27.05,26.76,842.0,9.22,8.42
00:34:20,4.6320,1.9896,5.0043,1.0939,27.33,27.04,841.0,9.22,8.41
00:34:40,4.6330,1.9905,5.0556,1.1050,27.61,27.31,843.0,9.22,8.43
00:35:00,4.6340,1.9899,5.1068,1.1160,27.89,27.58,843.0,9.22,8.43
00:35:20,4.6310,1.9904,5.1580,1.1271,28.17,27.86,843.0,9.22,8.43
00:35:40,4.6310,1.9902,5.2092,1.1381,28.45,28.13,838.0,9.22,8.38
00:36:00,4.6330,1.9904,5.2604,1.1492,28.73,28.40,829.0,9.22,8.29
00:36:20,4.6320,1.9908,5.3117,1.1602,29.01,28.68,828.0,9.22,8.28
00:36:40,4.6310,1.9888,5.3628,1.1713,29.29,28.95,827.0,9.21,8.27
00:37:00,4.6300,1.9895,5.4140,1.1824,29.57,29.22,827.0,9.21,8.27
00:37:20,4.6300,1.9893,5.4652,1.1934,29.85,29.49,829.0,9.21,8.29
00:37:40,4.6300,1.9893,5.5163,1.2045,30.13,29.77,827.0,9.21,8.27
00:38:00,4.6310,1.9893,5.5675,1.2155,30.41,30.04,821.0,9.21,8.21
00:38:20,4.6310,1.9887,5.6187,1.2266,30.69,30.31,821.0,9.21,8.21
00:38:40,4.6310,1.9894,5.6699,1.2376,30.97,30.59,824.0,9.21,8.24
00:39:00,4.6310,1.9897,5.7211,1.2487,31.25,30.86,825.0,9.21,8.25
00:39:20,4.6300,1.9897,5.7723,1.2597,31.53,31.13,829.0,9.21,8.29
00:39:40,4.6300,1.9895,5.8234,1.2708,31.81,31.41,832.0,9.21,8.32
00:40:00,4.6290,1.9898,5.8746,1.2818,32.09,31.68,823.0,9.21,8.23
00:40:20,4.6290,1.9895,5.9258,1.2929,32.37,31.95,817.0,9.21,8.17
00:40:40,4.6290,1.9894,5.9769,1.3039,32.65,32.23,815.0,9.21,8.15
00:41:00,4.6290,1.9896,6.0281,1.3150,32.93,32.50,817.0,9.21,8.17
00:41:20,4.6290,1.9895,6.0792,1.3260,33.20,32.77,821.0,9.21,8.21
00:41:40,4.6290,1.9892,6.1304,1.3371,33.48,33.05,813.0,9.21,8.13
00:42:00,4.6300,1.9895,6.1816,1.3481,33.76,33.32,809.0,9.21,8.09
00:42:20,4.6290,1.9898,6.2327,1.3592,34.04,33.59,812.0,9.21,8.12
00:42:40,4.6280,1.9889,6.2839,1.3702,34.32,33.87,810.0,9.2,8.1
00:43:00,4.6280,1.9889,6.3350,1.3813,34.60,34.14,818.0,9.2,8.18
00:43:20,4.4980,1.9895,6.3855,1.3923,34.88,34.41,654.0,8.95,6.54
00:43:40,3.6600,1.9033,6.4304,1.4032,35.12,34.68,644.0,6.97,6.44
00:44:00,3.4550,1.7905,6.4605,1.4125,35.29,34.91,522.0,6.19,5.22
00:44:20,4.6340,1.9896,6.4986,1.4224,35.50,35.15,711.0,9.22,7.11
00:44:40,4.6340,1.9894,6.5390,1.4325,35.72,35.40,643.0,9.22,6.43
00:45:00,4.6370,1.9902,6.5903,1.4436,36.00,35.68,844.0,9.23,8.44
00:45:20,4.6360,1.9896,6.6415,1.4546,36.28,35.95,836.0,9.22,8.36
00:45:40,4.6360,1.9900,6.6928,1.4657,36.56,36.22,837.0,9.23,8.37
00:46:00,4.6360,1.9902,6.7440,1.4767,36.84,36.50,833.0,9.23,8.33
00:46:20,4.6370,1.9897,6.7953,1.4878,37.12,36.77,830.0,9.23,8.3
00:46:40,4.6370,1.9901,6.8465,1.4989,37.40,37.04,833.0,9.23,8.33
00:47:00,4.6360,1.9909,6.8978,1.5099,37.68,37.32,832.0,9.23,8.32
00:47:20,4.6360,1.9904,6.9491,1.5210,37.96,37.59,832.0,9.23,8.32
00:47:40,2.8270,1.4286,6.9859,1.5305,38.16,37.83,811.0,4.04,8.11
00:48:00,2.5360,0.4533,6.9930,1.5333,38.20,37.89,130.0,1.15,1.3
00:48:20,2.5180,0.4219,6.9991,1.5357,38.23,37.95,123.4,1.06,1.234
00:48:40,2.5150,0.4077,7.0048,1.5379,38.26,38.01,114.8,1.03,1.148
00:49:00,2.5180,0.4062,7.0105,1.5402,38.29,38.07,113.5,1.02,1.135
00:49:20,2.5300,0.4275,7.0164,1.5425,38.32,38.12,118.2,1.08,1.182
00:49:40,2.5500,0.4716,7.0229,1.5451,38.36,38.19,132.9,1.2,1.329
00:50:00,2.7150,1.1583,7.0353,1.5497,38.43,38.30,203.0,3.14,2.03
00:50:20,4.6520,1.9909,7.0867,1.5608,38.71,38.57,833.0,9.26,8.33
00:50:40,4.6490,1.9910,7.1382,1.5718,38.99,38.85,841.0,9.26,8.41
00:51:00,4.6460,1.9908,7.1896,1.5829,39.27,39.12,833.0,9.25,8.33
00:51:20,4.6460,1.9900,7.2409,1.5940,39.55,39.39,832.0,9.25,8.32
00:51:40,4.6450,1.9897,7.2923,1.6050,39.83,39.67,839.0,9.24,8.39
00:52:00,4.6450,1.9900,7.3436,1.6161,40.11,39.94,840.0,9.24,8.4
00:52:20,4.6440,1.9901,7.3950,1.6271,40.39,40.21,846.0,9.24,8.46
00:52:40,4.6430,1.9900,7.4463,1.6382,40.67,40.49,849.0,9.24,8.49
00:53:00,4.6410,1.9907,7.4976,1.6492,40.95,40.76,848.0,9.24,8.48
00:53:20,4.6400,1.9903,7.5489,1.6603,41.23,41.03,850.0,9.23,8.5
00:53:40,4.6390,1.9897,7.6002,1.6714,41.51,41.31,847.0,9.23,8.47
00:54:00,4.6380,1.9897,7.6515,1.6824,41.79,41.58,841.0,9.23,8.41
00:54:20,4.6370,1.9893,7.7028,1.6935,42.07,41.85,842.0,9.22,8.42
00:54:40,4.6370,1.9894,7.7540,1.7045,42.35,42.13,843.0,9.22,8.43
00:55:00,4.6390,1.9900,7.8053,1.7156,42.63,42.40,842.0,9.23,8.42
00:55:20,4.6380,1.9898,7.8565,1.7266,42.91,42.67,837.0,9.23,8.37
00:55:40,4.6380,1.9901,7.9078,1.7377,43.19,42.95,839.0,9.23,8.39
00:56:00,4.6380,1.9899,7.9591,1.7487,43.47,43.22,841.0,9.23,8.41
00:56:20,4.6370,1.9900,8.0104,1.7598,43.75,43.49,833.0,9.23,8.33
00:56:40,4.6360,1.9898,8.0616,1.7708,44.03,43.77,812.0,9.22,8.12
00:57:00,4.6350,1.9896,8.1128,1.7819,44.31,44.04,848.0,9.22,8.48
00:57:20,2.7630,1.2872,8.1483,1.7910,44.51,44.26,483.0,3.56,4.83
00:57:40,2.5780,0.6911,8.1589,1.7951,44.56,44.37,201.0,1.78,2.01
00:58:00,2.5580,0.6238,8.1678,1.7986,44.61,44.45,183.5,1.6,1.835
00:58:20,2.5600,0.6490,8.1769,1.8021,44.66,44.54,187.0,1.66,1.87
00:58:40,2.6560,1.0093,8.1895,1.8069,44.73,44.66,246.0,2.68,2.46
00:59:00,4.6460,1.9919,8.2408,1.8180,45.01,44.93,793.0,9.25,7.93
00:59:20,4.6450,1.9889,8.2921,1.8290,45.29,45.20,857.0,9.24,8.57
00:59:40,4.6450,1.9901,8.3435,1.8401,45.57,45.48,851.0,9.24,8.51
01:00:00,4.6450,1.9901,8.3949,1.8511,45.85,45.75,847.0,9.24,8.47
01:00:20,4.6450,1.9903,8.4462,1.8622,46.13,46.02,846.0,9.24,8.46
01:00:40,4.6440,1.9901,8.4976,1.8733,46.41,46.30,847.0,9.24,8.47
01:01:00,4.6440,1.9899,8.5489,1.8843,46.69,46.57,843.0,9.24,8.43
01:01:20,4.6440,1.9905,8.6003,1.8954,46.97,46.84,843.0,9.24,8.43
01:01:40,4.6420,1.9903,8.6516,1.9064,47.25,47.12,840.0,9.24,8.4
01:02:00,4.6410,1.9897,8.7029,1.9175,47.54,47.39,839.0,9.23,8.39
01:02:20,4.6410,1.9899,8.7542,1.9285,47.82,47.66,838.0,9.24,8.38
01:02:40,4.6390,1.9907,8.8055,1.9396,48.10,47.94,838.0,9.23,8.38
01:03:00,4.6390,1.9898,8.8568,1.9507,48.38,48.21,842.0,9.23,8.42
01:03:20,4.6390,1.9897,8.9081,1.9617,48.66,48.48,836.0,9.23,8.36
01:03:40,4.6370,1.9895,8.9593,1.9728,48.94,48.76,831.0,9.23,8.31
01:04:00,4.6360,1.9893,9.0106,1.9838,49.22,49.03,825.0,9.22,8.25
01:04:20,4.6370,1.9894,9.0618,1.9949,49.50,49.30,812.0,9.22,8.12
01:04:40,4.6360,1.9895,9.1131,2.0059,49.78,49.58,806.0,9.22,8.06
01:05:00,4.6340,1.9897,9.1643,2.0170,50.06,49.85,800.0,9.22,8.0
01:05:20,4.6350,1.9895,9.2155,2.0280,50.33,50.12,797.0,9.22,7.97
01:05:40,4.6340,1.9889,9.2667,2.0391,50.61,50.40,791.0,9.22,7.91
01:06:00,4.6340,1.9892,9.3180,2.0501,50.89,50.67,789.0,9.22,7.89
01:06:20,4.6370,1.9895,9.3692,2.0612,51.17,50.94,791.0,9.23,7.91
01:06:40,4.6380,1.9897,9.4205,2.0722,51.45,51.22,793.0,9.23,7.93
01:07:00,4.6390,1.9892,9.4717,2.0833,51.73,51.49,798.0,9.23,7.98
01:07:20,4.6380,1.9896,9.5230,2.0943,52.01,51.76,800.0,9.23,8.0
01:07:40,4.6390,1.9898,9.5743,2.1054,52.29,52.03,802.0,9.23,8.02
01:08:00,4.6370,1.9894,9.6255,2.1164,52.57,52.31,801.0,9.22,8.01
01:08:20,4.6360,1.9895,9.6768,2.1275,52.85,52.58,807.0,9.22,8.07
01:08:40,4.6360,1.9894,9.7280,2.1386,53.13,52.85,810.0,9.22,8.1
01:09:00,4.6350,1.9890,9.7792,2.1496,53.41,53.13,812.0,9.22,8.12
01:09:20,4.6350,1.9890,9.8304,2.1607,53.69,53.40,821.0,9.22,8.21
01:09:40,4.6340,1.9897,9.8817,2.1717,53.97,53.67,823.0,9.22,8.23
01:10:00,4.6330,1.9898,9.9329,2.1828,54.25,53.95,822.0,9.22,8.22
01:10:20,4.6340,1.9892,9.9841,2.1938,54.53,54.22,822.0,9.22,8.22
01:10:40,4.6340,1.9890,10.0353,2.2049,54.81,54.49,829.0,9.22,8.29
01:11:00,4.6340,1.9894,10.0865,2.2159,55.09,54.77,812.0,9.22,8.12
01:11:20,2.5450,0.6009,10.0954,2.2194,55.14,54.85,181.3,1.53,1.813
01:11:40,4.6270,1.9886,10.1302,2.2283,55.33,55.07,633.0,9.2,6.33
01:12:00,4.6370,1.9889,10.1814,2.2394,55.61,55.35,783.0,9.22,7.83
01:12:20,4.6360,1.9887,10.2327,2.2504,55.89,55.62,801.0,9.22,8.01
01:12:40,4.6320,1.9889,10.2839,2.2615,56.17,55.89,767.0,9.21,7.67
01:13:00,4.6340,1.9882,10.3351,2.2725,56.45,56.17,784.0,9.21,7.84
01:13:20,4.6340,1.9895,10.3863,2.2836,56.73,56.44,789.0,9.22,7.89
01:13:40,4.6330,1.9893,10.4375,2.2946,57.01,56.71,791.0,9.22,7.91
01:14:00,4.6320,1.9890,10.4887,2.3057,57.29,56.99,796.0,9.21,7.96
01:14:20,4.6310,1.9886,10.5398,2.3167,57.57,57.26,803.0,9.21,8.03
01:14:40,4.6310,1.9888,10.5910,2.3278,57.85,57.53,801.0,9.21,8.01
01:15:00,4.6300,1.9885,10.6422,2.3388,58.13,57.80,798.0,9.21,7.98
01:15:20,4.6290,1.9881,10.6933,2.3499,58.41,58.08,788.0,9.2,7.88
01:15:40,3.5290,1.8294,10.7303,2.3602,58.61,58.33,591.0,6.46,5.91
01:16:00,2.6040,0.8645,10.7459,2.3660,58.69,58.48,340.0,2.25,3.4
01:16:20,3.6600,1.8883,10.7724,2.3740,58.84,58.67,467.0,6.91,4.67
01:16:40,4.6360,1.9882,10.8142,2.3843,59.07,58.93,780.0,9.22,7.8
01:17:00,4.6360,1.9888,10.8654,2.3953,59.35,59.20,764.0,9.22,7.64
01:17:20,3.8090,1.9728,10.9118,2.4063,59.60,59.47,644.0,7.51,6.44
01:17:40,4.6300,1.9898,10.9587,2.4174,59.86,59.74,720.0,9.21,7.2
01:18:00,4.6370,1.9898,11.0099,2.4284,60.14,60.02,765.0,9.23,7.65
01:18:20,2.5920,0.6961,11.0208,2.4326,60.20,60.12,180.5,1.8,1.805
01:18:40,2.6950,1.2376,11.0350,2.4380,60.27,60.25,244.0,3.34,2.44
01:19:00,4.6400,1.9895,11.0863,2.4490,60.55,60.53,714.0,9.23,7.14
01:19:20,4.6450,1.9897,11.1377,2.4601,60.83,60.80,801.0,9.24,8.01
01:19:40,4.6450,1.9907,11.1890,2.4711,61.11,61.07,803.0,9.25,8.03
01:20:00,4.6340,1.9899,11.2403,2.4822,61.39,61.35,734.0,9.22,7.34
01:20:20,4.6440,1.9902,11.2917,2.4932,61.67,61.62,797.0,9.24,7.97
01:20:40,4.6420,1.9901,11.3430,2.5043,61.96,61.89,791.0,9.24,7.91
01:21:00,4.6420,1.9899,11.3943,2.5153,62.24,62.17,788.0,9.24,7.88
01:21:20,4.6410,1.9901,11.4456,2.5264,62.52,62.44,785.0,9.24,7.85
01:21:40,4.6410,1.9903,11.4969,2.5375,62.80,62.71,786.0,9.24,7.86
01:22:00,4.6410,1.9906,11.5482,2.5485,63.08,62.99,785.0,9.24,7.85
01:22:20,4.6400,1.9900,11.5995,2.5596,63.36,63.26,790.0,9.23,7.9
01:22:40,4.6360,1.9897,11.6508,2.5706,63.64,63.53,774.0,9.22,7.74
01:23:00,3.1080,1.6673,11.6799,2.5799,63.80,63.76,458.0,5.18,4.58
01:23:20,4.6390,1.9900,11.7218,2.5903,64.02,64.02,716.0,9.23,7.16
01:23:40,4.1910,1.9901,11.7706,2.6013,64.29,64.29,743.0,8.34,7.43
01:24:00,3.3970,1.7624,11.8035,2.6110,64.47,64.53,558.0,5.99,5.58
01:24:20,4.6420,1.9898,11.8548,2.6221,64.75,64.80,796.0,9.24,7.96
01:24:40,4.6420,1.9902,11.9061,2.6331,65.03,65.08,793.0,9.24,7.93
01:25:00,4.6400,1.9903,11.9574,2.6442,65.31,65.35,773.0,9.23,7.73
01:25:20,4.6400,1.9892,12.0087,2.6552,65.59,65.62,770.0,9.23,7.7
01:25:40,4.6400,1.9903,12.0600,2.6663,65.87,65.90,766.0,9.23,7.66
01:26:00,4.6390,1.9898,12.1113,2.6774,66.15,66.17,771.0,9.23,7.71
01:26:20,4.6390,1.9901,12.1626,2.6884,66.43,66.44,780.0,9.23,7.8
01:26:40,4.6380,1.9900,12.2139,2.6995,66.71,66.72,785.0,9.23,7.85
01:27:00,4.6380,1.9896,12.2651,2.7105,66.99,66.99,786.0,9.23,7.86
01:27:20,4.6380,1.9898,12.3164,2.7216,67.27,67.26,778.0,9.23,7.78
01:27:40,4.6370,1.9897,12.3677,2.7326,67.55,67.54,786.0,9.23,7.86
01:28:00,4.6370,1.9900,12.4189,2.7437,67.83,67.81,786.0,9.23,7.86
01:28:20,2.7370,1.3346,12.4506,2.7529,68.00,68.04,331.0,3.65,3.31
01:28:40,2.9890,1.6043,12.4750,2.7614,68.14,68.25,378.0,4.8,3.78
01:29:00,2.5690,0.6698,12.4906,2.7672,68.22,68.39,215.0,1.72,2.15
01:29:20,2.5630,0.6604,12.5001,2.7709,68.28,68.48,207.0,1.69,2.07
01:29:40,2.5440,0.5774,12.5086,2.7742,68.32,68.57,164.1,1.47,1.641
01:30:00,2.5530,0.6293,12.5174,2.7777,68.37,68.65,184.1,1.61,1.841
01:30:20,2.5760,0.6935,12.5266,2.7813,68.42,68.74,178.7,1.79,1.787
01:30:40,4.6500,1.9886,12.5628,2.7907,68.62,68.97,669.0,9.25,6.69
01:31:00,3.2110,1.6720,12.6034,2.8008,68.84,69.22,532.0,5.37,5.32
01:31:20,4.6400,1.9890,12.6533,2.8119,69.11,69.50,585.0,9.23,5.85
01:31:40,4.6460,1.9898,12.7047,2.8229,69.39,69.77,779.0,9.24,7.79
01:32:00,4.6440,1.9895,12.7560,2.8340,69.67,70.04,747.0,9.24,7.47
01:32:20,4.6440,1.9901,12.8074,2.8451,69.95,70.32,762.0,9.24,7.62
01:32:40,4.6430,1.9898,12.8587,2.8561,70.23,70.59,763.0,9.24,7.63
01:33:00,4.6420,1.9898,12.9100,2.8672,70.51,70.86,762.0,9.24,7.62
01:33:20,4.6430,1.9898,12.9614,2.8782,70.79,71.14,762.0,9.24,7.62
01:33:40,4.6420,1.9893,13.0127,2.8893,71.07,71.41,761.0,9.23,7.61
01:34:00,4.6410,1.9898,13.0640,2.9003,71.36,71.68,757.0,9.23,7.57
01:34:20,4.6420,1.9897,13.1153,2.9114,71.64,71.95,756.0,9.24,7.56
01:34:40,4.6420,1.9900,13.1666,2.9224,71.92,72.23,753.0,9.24,7.53
01:35:00,4.6410,1.9901,13.2179,2.9335,72.20,72.50,747.0,9.24,7.47
01:35:20,4.6400,1.9898,13.2692,2.9445,72.48,72.77,742.0,9.23,7.42
01:35:40,4.6400,1.9894,13.3205,2.9556,72.76,73.05,744.0,9.23,7.44
01:36:00,4.6400,1.9898,13.3718,2.9667,73.04,73.32,748.0,9.23,7.48
01:36:20,4.6400,1.9897,13.4231,2.9777,73.32,73.59,748.0,9.23,7.48
01:36:40,4.6400,1.9898,13.4744,2.9888,73.60,73.87,751.0,9.23,7.51
01:37:00,4.6390,1.9889,13.5256,2.9998,73.88,74.14,750.0,9.23,7.5
01:37:20,4.6400,1.9892,13.5769,3.0109,74.16,74.41,750.0,9.23,7.5
01:37:40,4.6400,1.9897,13.6282,3.0219,74.44,74.69,752.0,9.23,7.52
01:38:00,4.6400,1.9895,13.6795,3.0330,74.72,74.96,752.0,9.23,7.52
01:38:20,4.6390,1.9899,13.7308,3.0440,75.00,75.23,747.0,9.23,7.47
01:38:40,4.6400,1.9898,13.7821,3.0551,75.28,75.51,742.0,9.23,7.42
01:39:00,4.6400,1.9899,13.8334,3.0661,75.56,75.78,739.0,9.23,7.39
01:39:20,4.6410,1.9896,13.8846,3.0772,75.84,76.05,743.0,9.23,7.43
01:39:40,4.6410,1.9899,13.9360,3.0882,76.12,76.33,756.0,9.24,7.56
01:40:00,4.6410,1.9899,13.9873,3.0993,76.40,76.60,757.0,9.24,7.57
01:40:20,4.6400,1.9904,14.0386,3.1104,76.68,76.87,758.0,9.24,7.58
01:40:40,4.6410,1.9899,14.0899,3.1214,76.96,77.15,761.0,9.24,7.61
01:41:00,4.6410,1.9899,14.1412,3.1325,77.24,77.42,766.0,9.24,7.66
01:41:20,4.6400,1.9897,14.1925,3.1435,77.52,77.69,768.0,9.23,7.68
01:41:40,4.6400,1.9896,14.2438,3.1546,77.80,77.97,768.0,9.23,7.68
01:42:00,4.6400,1.9892,14.2951,3.1656,78.08,78.24,766.0,9.23,7.66
01:42:20,4.6400,1.9902,14.3464,3.1767,78.36,78.51,766.0,9.23,7.66
01:42:40,4.6400,1.9908,14.3977,3.1877,78.64,78.79,768.0,9.24,7.68
01:43:00,4.6410,1.9906,14.4490,3.1988,78.92,79.06,769.0,9.24,7.69
01:43:20,4.6420,1.9903,14.5003,3.2099,79.20,79.33,770.0,9.24,7.7
01:43:40,4.6420,1.9906,14.5516,3.2209,79.48,79.61,765.0,9.24,7.65
01:44:00,4.6410,1.9898,14.6029,3.2320,79.76,79.88,762.0,9.23,7.62
01:44:20,4.6410,1.9902,14.6543,3.2430,80.04,80.15,759.0,9.24,7.59
01:44:40,4.6410,1.9897,14.7056,3.2541,80.32,80.42,757.0,9.23,7.57
01:45:00,4.6410,1.9898,14.7569,3.2651,80.60,80.70,762.0,9.23,7.62
01:45:20,4.6410,1.9902,14.8082,3.2762,80.88,80.97,765.0,9.24,7.65
01:45:40,4.6400,1.9907,14.8595,3.2873,81.16,81.24,762.0,9.24,7.62
01:46:00,4.6390,1.9900,14.9108,3.2983,81.44,81.52,766.0,9.23,7.66
01:46:20,4.6380,1.9896,14.9621,3.3094,81.72,81.79,766.0,9.23,7.66
01:46:40,4.6380,1.9893,15.0133,3.3204,82.00,82.06,770.0,9.23,7.7
01:47:00,4.6390,1.9897,15.0646,3.3315,82.28,82.34,768.0,9.23,7.68
01:47:20,4.6400,1.9900,15.1159,3.3425,82.56,82.61,770.0,9.23,7.7
01:47:40,4.6390,1.9904,15.1672,3.3536,82.84,82.88,768.0,9.23,7.68
01:48:00,4.6370,1.9901,15.2185,3.3646,83.12,83.16,768.0,9.23,7.68
01:48:20,4.6370,1.9897,15.2697,3.3757,83.40,83.43,765.0,9.23,7.65
01:48:40,4.6370,1.9895,15.3210,3.3868,83.68,83.70,762.0,9.23,7.62
01:49:00,4.6370,1.9895,15.3722,3.3978,83.96,83.98,764.0,9.23,7.64
01:49:20,4.6370,1.9893,15.4235,3.4089,84.24,84.25,766.0,9.22,7.66
01:49:40,4.6370,1.9897,15.4747,3.4199,84.52,84.52,765.0,9.23,7.65
01:50:00,4.6360,1.9903,15.5260,3.4310,84.80,84.80,759.0,9.23,7.59
01:50:20,4.6360,1.9895,15.5772,3.4420,85.08,85.07,761.0,9.22,7.61
01:50:40,4.6350,1.9894,15.6285,3.4531,85.36,85.34,763.0,9.22,7.63
01:51:00,4.6340,1.9895,15.6797,3.4641,85.64,85.62,765.0,9.22,7.65
01:51:20,4.6340,1.9892,15.7309,3.4752,85.92,85.89,762.0,9.22,7.62
01:51:40,4.6350,1.9895,15.7821,3.4862,86.20,86.16,761.0,9.22,7.61
01:52:00,4.6340,1.9888,15.8333,3.4973,86.48,86.44,760.0,9.22,7.6
01:52:20,4.6340,1.9895,15.8845,3.5083,86.76,86.71,758.0,9.22,7.58
01:52:40,4.6330,1.9889,15.9357,3.5194,87.04,86.98,757.0,9.21,7.57
01:53:00,4.6330,1.9896,15.9870,3.5304,87.32,87.25,755.0,9.22,7.55
01:53:20,4.6340,1.9892,16.0382,3.5415,87.60,87.53,756.0,9.22,7.56
01:53:40,4.6350,1.9893,16.0894,3.5525,87.88,87.80,757.0,9.22,7.57
01:54:00,4.6350,1.9894,16.1406,3.5636,88.16,88.07,758.0,9.22,7.58
01:54:20,4.6360,1.9896,16.1918,3.5746,88.44,88.35,761.0,9.22,7.61
01:54:40,4.6370,1.9898,16.2431,3.5857,88.72,88.62,760.0,9.23,7.6
01:55:00,4.6380,1.9899,16.2944,3.5967,89.00,88.89,765.0,9.23,7.65
01:55:20,4.6390,1.9897,16.3457,3.6078,89.28,89.17,766.0,9.23,7.66
01:55:40,4.6390,1.9905,16.3969,3.6189,89.56,89.44,759.0,9.23,7.59
01:56:00,4.6370,1.9901,16.4482,3.6299,89.84,89.71,756.0,9.23,7.56
01:56:20,4.6370,1.9901,16.4995,3.6410,90.12,89.99,751.0,9.23,7.51
01:56:40,4.6370,1.9899,16.5508,3.6520,90.40,90.26,746.0,9.23,7.46
01:57:00,4.6360,1.9900,16.6020,3.6631,90.68,90.53,746.0,9.23,7.46
01:57:20,4.6360,1.9895,16.6533,3.6741,90.96,90.81,744.0,9.22,7.44
01:57:40,4.6350,1.9900,16.7045,3.6852,91.24,91.08,742.0,9.22,7.42
01:58:00,4.6360,1.9898,16.7558,3.6962,91.52,91.35,738.0,9.22,7.38
01:58:20,4.6360,1.9899,16.8070,3.7073,91.80,91.63,732.0,9.23,7.32
01:58:40,4.6350,1.9897,16.8583,3.7184,92.08,91.90,727.0,9.22,7.27
01:59:00,4.6340,1.9896,16.9095,3.7294,92.36,92.17,725.0,9.22,7.25
01:59:20,4.6350,1.9896,16.9607,3.7405,92.64,92.45,725.0,9.22,7.25
01:59:40,4.6350,1.9893,17.0119,3.7515,92.92,92.72,726.0,9.22,7.26
02:00:00,4.6360,1.9895,17.0632,3.7626,93.20,92.99,722.0,9.22,7.22
02:00:20,4.6370,1.9895,17.1144,3.7736,93.48,93.27,724.0,9.23,7.24
02:00:40,4.6370,1.9902,17.1657,3.7847,93.76,93.54,722.0,9.23,7.22
02:01:00,4.6380,1.9897,17.2169,3.7957,94.04,93.81,720.0,9.23,7.2
02:01:20,4.6380,1.9896,17.2682,3.8068,94.32,94.08,721.0,9.23,7.21
02:01:40,4.6390,1.9902,17.3195,3.8178,94.60,94.36,724.0,9.23,7.24
02:02:00,4.6390,1.9896,17.3708,3.8289,94.88,94.63,724.0,9.23,7.24
02:02:20,4.6390,1.9905,17.4221,3.8400,95.16,94.90,723.0,9.23,7.23
02:02:40,4.6380,1.9900,17.4733,3.8510,95.44,95.18,721.0,9.23,7.21
02:03:00,4.6370,1.9901,17.5246,3.8621,95.72,95.45,724.0,9.23,7.24
02:03:20,4.6360,1.9898,17.5759,3.8731,96.00,95.72,723.0,9.22,7.23
02:03:40,4.6350,1.9898,17.6271,3.8842,96.28,96.00,722.0,9.22,7.22
02:04:00,4.6360,1.9892,17.6783,3.8952,96.56,96.27,721.0,9.22,7.21
02:04:20,4.6370,1.9894,17.7296,3.9063,96.84,96.54,718.0,9.22,7.18
02:04:40,4.6370,1.9894,17.7808,3.9173,97.12,96.82,717.0,9.22,7.17
02:05:00,4.6380,1.9899,17.8321,3.9284,97.40,97.09,719.0,9.23,7.19
02:05:20,4.6380,1.9897,17.8834,3.9394,97.68,97.36,717.0,9.23,7.17
02:05:40,4.6360,1.9899,17.9346,3.9505,97.96,97.64,715.0,9.23,7.15
02:06:00,4.6350,1.9892,17.9858,3.9615,98.24,97.91,705.0,9.22,7.05
02:06:20,4.6340,1.9896,18.0371,3.9726,98.52,98.18,687.0,9.22,6.87
02:06:40,4.6330,1.9898,18.0883,3.9836,98.80,98.46,674.0,9.22,6.74
02:07:00,4.6360,1.9898,18.1395,3.9947,99.08,98.73,688.0,9.22,6.88
02:07:20,4.6370,1.9905,18.1908,4.0058,99.36,99.00,696.0,9.23,6.96
02:07:40,4.6370,1.9897,18.2300,4.0158,99.57,99.25,604.0,9.23,6.04
02:08:00,2.6820,1.0519,18.2486,4.0225,99.67,99.42,357.0,2.82,3.57
02:08:20,2.5250,0.4695,18.2562,4.0255,99.71,99.49,134.4,1.19,1.344
02:08:40,2.5200,0.4589,18.2626,4.0281,99.75,99.55,130.2,1.16,1.302
02:09:00,2.5190,0.4573,18.2690,4.0306,99.79,99.62,130.3,1.15,1.303
02:09:20,2.5240,0.4706,18.2756,4.0332,99.82,99.68,133.6,1.19,1.336
02:09:40,2.5310,0.4893,18.2824,4.0359,99.86,99.75,138.2,1.24,1.382
02:10:00,2.5350,0.5077,18.2894,4.0387,99.90,99.82,143.2,1.29,1.432
02:10:20,2.5360,0.5167,18.2968,4.0416,99.94,99.89,150.3,1.31,1.503
02:10:40,2.5430,0.5496,18.3044,4.0445,99.98,99.96,156.9,1.4,1.569
02:11:00,2.5740,0.6678,18.3132,4.0480,100.03,100.05,178.2,1.72,1.782