File: output/4/x-dragon-2.csv
Time,Voltage(V),Current(A),Energy(Wh),Capacity(Ah),Energy Proportion(%),Capacity Proportion(%),Irradiance (Wh/m2),Irradiance/100
00:00:00,2.9560,1.6061,0.0132,0.0045,0.20,0.22,768,7.68
00:00:10,2.9870,1.6191,0.0266,0.0090,0.40,0.44,769,7.69
00:00:20,3.0020,1.6268,0.0402,0.0135,0.61,0.66,768,7.68
00:00:30,3.0170,1.6302,0.0538,0.0180,0.81,0.88,774,7.74
00:00:40,3.0280,1.6330,0.0676,0.0225,1.02,1.10,774,7.74
00:00:50,3.0110,1.6283,0.0812,0.0271,1.23,1.33,771,7.71
00:01:00,3.0080,1.6285,0.0948,0.0316,1.43,1.55,769,7.69
00:01:10,3.0130,1.6286,0.1084,0.0361,1.64,1.77,767,7.67
00:01:20,3.0090,1.6262,0.1220,0.0406,1.84,1.99,766,7.66
00:01:30,3.0090,1.6248,0.1356,0.0451,2.05,2.21,768,7.68
00:01:40,3.0070,1.6244,0.1492,0.0497,2.26,2.43,765,7.65
00:01:50,3.0040,1.6203,0.1627,0.0542,2.46,2.65,768,7.68
00:02:00,3.0090,1.6227,0.1763,0.0587,2.66,2.87,765,7.65
00:02:10,3.0210,1.6241,0.1899,0.0632,2.87,3.09,765,7.65
00:02:20,3.0080,1.6237,0.2035,0.0677,3.08,3.31,764,7.64
00:02:30,3.0080,1.6236,0.2170,0.0722,3.28,3.54,766,7.66
00:02:40,3.0020,1.6212,0.2305,0.0767,3.49,3.76,764,7.64
00:02:50,3.0370,1.6292,0.2443,0.0812,3.69,3.98,768,7.68
00:03:00,3.1470,1.6340,0.2586,0.0858,3.91,4.20,771,7.71
00:03:10,3.1320,1.6335,0.2728,0.0903,4.12,4.42,767,7.67
00:03:20,3.1400,1.6356,0.2871,0.0948,4.34,4.64,771,7.71
00:03:30,3.1360,1.6341,0.3013,0.0994,4.55,4.87,770,7.7
00:03:40,3.1240,1.6299,0.3154,0.1039,4.77,5.09,770,7.7
00:03:50,3.1260,1.6294,0.3296,0.1084,4.98,5.31,769,7.69
00:04:00,3.1320,1.6310,0.3438,0.1130,5.20,5.53,770,7.7
00:04:10,3.1330,1.6336,0.3580,0.1175,5.41,5.75,770,7.7
00:04:20,3.1290,1.6338,0.3722,0.1220,5.63,5.98,772,7.72
00:04:30,3.1240,1.6332,0.3864,0.1266,5.84,6.20,774,7.74
00:04:40,3.1220,1.6286,0.4005,0.1311,6.05,6.42,770,7.7
00:04:50,3.1160,1.6306,0.4146,0.1356,6.27,6.64,769,7.69
00:05:00,3.1130,1.6305,0.4287,0.1402,6.48,6.86,770,7.7
00:05:10,3.1200,1.6312,0.4428,0.1447,6.69,7.09,772,7.72
00:05:20,3.1180,1.6305,0.4570,0.1492,6.91,7.31,770,7.7
00:05:30,3.1010,1.6241,0.4709,0.1537,7.12,7.53,766,7.66
00:05:40,3.1070,1.6290,0.4850,0.1583,7.33,7.75,767,7.67
00:05:50,3.1120,1.6306,0.4991,0.1628,7.54,7.97,771,7.71
00:06:00,3.1090,1.6275,0.5132,0.1673,7.76,8.19,768,7.68
00:06:10,3.1090,1.6294,0.5272,0.1718,7.97,8.41,767,7.67
00:06:20,3.1190,1.6309,0.5414,0.1764,8.18,8.64,772,7.72
00:06:30,2.9760,1.6125,0.5547,0.1808,8.39,8.86,765,7.65
00:06:40,2.9610,1.6078,0.5679,0.1853,8.59,9.07,759,7.59
00:06:50,2.9700,1.6145,0.5812,0.1898,8.79,9.29,759,7.59
00:07:00,2.9700,1.6120,0.5945,0.1943,8.99,9.51,761,7.61
00:07:10,2.9380,1.5967,0.6076,0.1987,9.18,9.73,753,7.53
00:07:20,2.9090,1.5846,0.6204,0.2031,9.38,9.95,750,7.5
00:07:30,2.9100,1.5830,0.6332,0.2075,9.57,10.16,744,7.44
00:07:40,2.9390,1.5962,0.6462,0.2119,9.77,10.38,751,7.51
00:07:50,2.9540,1.6062,0.6594,0.2164,9.97,10.60,755,7.55
00:08:00,2.9870,1.6194,0.6728,0.2209,10.17,10.82,760,7.6
00:08:10,3.0060,1.6246,0.6864,0.2254,10.38,11.04,768,7.68
00:08:20,2.9540,1.6015,0.6995,0.2299,10.57,11.26,760,7.6
00:08:30,3.7920,1.0220,0.7103,0.2327,10.74,11.39,737,7.37
00:08:40,2.7960,0.7442,0.7161,0.2348,10.82,11.50,437,4.37
00:08:50,2.7890,1.5028,0.7277,0.2389,11.00,11.70,698,6.98
00:09:00,2.8770,1.5641,0.7402,0.2433,11.19,11.91,720,7.2
00:09:10,2.9210,1.5863,0.7531,0.2477,11.38,12.13,744,7.44
00:09:20,2.9310,1.5918,0.7660,0.2521,11.58,12.35,750,7.5
00:09:30,2.9470,1.5975,0.7791,0.2566,11.78,12.56,750,7.5
00:09:40,2.9610,1.6051,0.7923,0.2610,11.98,12.78,754,7.54
00:09:50,2.9820,1.6137,0.8057,0.2655,12.18,13.00,759,7.59
00:10:00,3.0000,1.6207,0.8192,0.2700,12.38,13.22,760,7.6
00:10:10,3.0270,1.6266,0.8329,0.2745,12.59,13.44,765,7.65
00:10:20,3.0070,1.6202,0.8464,0.2790,12.80,13.66,762,7.62
00:10:30,3.0050,1.6205,0.8599,0.2835,13.00,13.88,764,7.64
00:10:40,3.0010,1.6192,0.8734,0.2880,13.20,14.10,761,7.61
00:10:50,2.9470,1.5953,0.8865,0.2924,13.40,14.32,754,7.54
00:11:00,2.9570,1.5996,0.8996,0.2969,13.60,14.54,752,7.52
00:11:10,2.9080,1.5763,0.9124,0.3013,13.79,14.75,747,7.47
00:11:20,2.9590,1.6007,0.9255,0.3057,13.99,14.97,753,7.53
00:11:30,2.9790,1.6132,0.9389,0.3102,14.19,15.19,757,7.57
00:11:40,3.0380,1.6289,0.9526,0.3147,14.40,15.41,762,7.62
00:11:50,3.1550,1.6394,0.9670,0.3193,14.62,15.63,771,7.71
00:12:00,3.1890,1.6563,0.9816,0.3239,14.84,15.86,778,7.78
00:12:10,3.2240,1.6741,0.9966,0.3285,15.07,16.09,786,7.86
00:12:20,3.2690,1.6892,1.0120,0.3332,15.30,16.32,795,7.95
00:12:30,3.2680,1.6917,1.0273,0.3379,15.53,16.55,801,8.01
00:12:40,3.2540,1.6815,1.0425,0.3426,15.76,16.78,797,7.97
00:12:50,3.2310,1.6785,1.0576,0.3473,15.99,17.00,792,7.92
00:13:00,3.2540,1.6918,1.0729,0.3520,16.22,17.23,796,7.96
00:13:10,2.9040,1.5464,1.0854,0.3562,16.41,17.44,803,8.03
00:13:20,2.4330,0.3326,1.0876,0.3572,16.44,17.49,369,3.69
00:13:30,2.7190,0.5631,1.0919,0.3587,16.51,17.57,194.5,1.945
00:13:40,3.1840,1.6596,1.1065,0.3633,16.73,17.79,722,7.22
00:13:50,3.2380,0.0082,1.1066,0.3634,16.73,17.79,602,6.02
00:14:00,2.5180,0.5101,1.1102,0.3648,16.78,17.86,332,3.32
00:14:10,2.7980,1.2855,1.1202,0.3684,16.93,18.04,642,6.42
00:14:20,2.5500,0.3224,1.1225,0.3692,16.97,18.08,480,4.8
00:14:30,2.7430,1.1710,1.1314,0.3725,17.10,18.24,500,5.0
00:14:40,2.9770,1.6174,1.1448,0.3770,17.31,18.46,743,7.43
00:14:50,2.9710,1.6166,1.1581,0.3815,17.51,18.68,763,7.63
00:15:00,2.9880,1.6227,1.1716,0.3860,17.71,18.90,766,7.66
00:15:10,2.9900,1.6239,1.1851,0.3905,17.91,19.12,765,7.65
00:15:20,3.1940,1.6581,1.1998,0.3951,18.14,19.35,778,7.78
00:15:30,3.2140,1.6716,1.2147,0.3998,18.36,19.57,790,7.9
00:15:40,2.3170,0.9578,1.2208,0.4024,18.46,19.71,713,7.13
00:15:50,2.5840,0.4670,1.2242,0.4037,18.51,19.77,328,3.28
00:16:00,2.9290,0.7082,1.2300,0.4057,18.59,19.87,347,3.47
00:16:10,1.7740,0.0013,1.2300,0.4057,18.59,19.87,588,5.88
00:16:20,4.0820,0.8384,1.2395,0.4080,18.74,19.98,451,4.51
00:16:30,2.8400,1.5339,1.2516,0.4123,18.92,20.19,714,7.14
00:16:40,2.8810,1.5686,1.2641,0.4166,19.11,20.40,737,7.37
00:16:50,2.9350,1.5945,1.2771,0.4211,19.31,20.62,751,7.51
00:17:00,2.9740,1.6142,1.2905,0.4255,19.51,20.84,762,7.62
00:17:10,3.0350,1.6378,1.3043,0.4301,19.72,21.06,772,7.72
00:17:20,3.0060,1.5950,1.3176,0.4345,19.92,21.28,787,7.87
00:17:30,5.3200,0.0092,1.3177,0.4345,19.92,21.28,683,6.83
00:17:40,2.9210,1.5668,1.3304,0.4389,20.11,21.49,775,7.75
00:17:50,2.3200,0.3118,1.3324,0.4398,20.14,21.53,210,2.1
00:18:00,2.7380,0.7329,1.3380,0.4418,20.23,21.63,468,4.68
00:18:10,2.4740,0.5430,1.3418,0.4433,20.28,21.71,543,5.43
00:18:20,3.0560,1.6455,1.3557,0.4479,20.49,21.93,706,7.06
00:18:30,3.1460,1.6398,1.3701,0.4524,20.71,22.15,777,7.77
00:18:40,3.1760,1.6558,1.3847,0.4570,20.93,22.38,781,7.81
00:18:50,3.1960,1.6657,1.3994,0.4617,21.16,22.61,787,7.87
00:19:00,3.2060,1.6691,1.4143,0.4663,21.38,22.83,792,7.92
00:19:10,2.8720,1.5506,1.4267,0.4706,21.57,23.04,681,6.81
00:19:20,3.2240,1.6811,1.4417,0.4753,21.80,23.27,795,7.95
00:19:30,2.3550,0.3384,1.4440,0.4762,21.83,23.32,269,2.69
00:19:40,5.3200,0.0091,1.4441,0.4762,21.83,23.32,401,4.01
00:19:50,3.1770,1.6544,1.4587,0.4808,22.05,23.55,791,7.91
00:20:00,2.7810,1.2608,1.4684,0.4843,22.20,23.72,772,7.72
00:20:10,3.3740,0.8622,1.4765,0.4867,22.32,23.83,312,3.12
00:20:20,3.2250,1.6717,1.4915,0.4914,22.55,24.06,764,7.64
00:20:30,2.7080,0.7277,1.4970,0.4934,22.63,24.16,635,6.35
00:20:40,2.6360,0.6237,1.5015,0.4951,22.70,24.25,284,2.84
00:20:50,2.7950,1.4207,1.5126,0.4991,22.87,24.44,624,6.24
00:21:00,3.2390,1.6825,1.5277,0.5038,23.09,24.67,756,7.56
00:21:10,3.3050,1.7154,1.5434,0.5085,23.33,24.90,788,7.88
00:21:20,3.2890,1.7109,1.5591,0.5133,23.57,25.13,820,8.2
00:21:30,3.2960,1.7098,1.5747,0.5180,23.81,25.37,816,8.16
00:21:40,3.3160,1.7187,1.5906,0.5228,24.04,25.60,815,8.15
00:21:50,3.2440,1.6837,1.6057,0.5275,24.27,25.83,775,7.75
00:22:00,2.8460,1.5244,1.6178,0.5317,24.46,26.04,633,6.33
00:22:10,3.2750,1.7011,1.6333,0.5364,24.69,26.27,812,8.12
00:22:20,3.1790,1.6587,1.6479,0.5410,24.91,26.49,794,7.94
00:22:30,3.2870,1.7008,1.6634,0.5458,25.15,26.72,806,8.06
00:22:40,3.2710,1.6978,1.6789,0.5505,25.38,26.96,806,8.06
00:22:50,3.2790,1.7007,1.6943,0.5552,25.61,27.19,807,8.07
00:23:00,3.2820,1.7024,1.7099,0.5599,25.85,27.42,809,8.09
00:23:10,3.2800,1.7035,1.7254,0.5647,26.08,27.65,806,8.06
00:23:20,3.2940,1.7083,1.7410,0.5694,26.32,27.88,809,8.09
00:23:30,3.2980,1.7096,1.7567,0.5742,26.56,28.11,808,8.08
00:23:40,3.3090,1.7143,1.7724,0.5789,26.79,28.35,810,8.1
00:23:50,3.3170,1.7222,1.7883,0.5837,27.03,28.58,815,8.15
00:24:00,3.3300,1.7276,1.8043,0.5885,27.28,28.82,818,8.18
00:24:10,3.3320,1.7272,1.8203,0.5933,27.52,29.05,818,8.18
00:24:20,3.3370,1.7287,1.8363,0.5981,27.76,29.29,817,8.17
00:24:30,3.3460,1.7335,1.8524,0.6029,28.00,29.52,820,8.2
00:24:40,3.3510,1.7350,1.8686,0.6077,28.25,29.76,820,8.2
00:24:50,3.3550,1.7357,1.8847,0.6126,28.49,30.00,823,8.23
00:25:00,3.3430,1.7326,1.9008,0.6174,28.74,30.23,821,8.21
00:25:10,3.2800,1.7035,1.9163,0.6221,28.97,30.46,815,8.15
00:25:20,3.3050,1.7141,1.9321,0.6269,29.21,30.70,813,8.13
00:25:30,3.3170,1.7196,1.9479,0.6316,29.45,30.93,814,8.14
00:25:40,3.3390,1.7311,1.9640,0.6364,29.69,31.17,820,8.2
00:25:50,3.3020,1.7144,1.9797,0.6412,29.93,31.40,817,8.17
00:26:00,3.3200,1.7208,1.9956,0.6460,30.17,31.63,816,8.16
00:26:10,3.3080,1.7163,2.0113,0.6508,30.41,31.87,816,8.16
00:26:20,3.2840,1.7032,2.0269,0.6555,30.64,32.10,811,8.11
00:26:30,3.2840,1.7063,2.0425,0.6602,30.88,32.33,807,8.07
00:26:40,3.2890,1.7084,2.0581,0.6650,31.11,32.56,809,8.09
00:26:50,3.2860,1.7060,2.0736,0.6697,31.35,32.79,807,8.07
00:27:00,3.2710,1.6963,2.0890,0.6744,31.58,33.02,804,8.04
00:27:10,3.2490,1.6879,2.1043,0.6791,31.81,33.25,800,8.0
00:27:20,3.2290,1.6796,2.1193,0.6838,32.04,33.48,796,7.96
00:27:30,3.2210,1.6738,2.1343,0.6884,32.26,33.71,796,7.96
00:27:40,3.2020,1.6725,2.1492,0.6931,32.49,33.94,791,7.91
00:27:50,3.1980,1.6674,2.1640,0.6977,32.71,34.16,790,7.9
00:28:00,3.1910,1.6638,2.1788,0.7023,32.94,34.39,791,7.91
00:28:10,3.1920,1.6645,2.1935,0.7070,33.16,34.62,786,7.86
00:28:20,3.1970,1.6693,2.2083,0.7116,33.38,34.84,788,7.88
00:28:30,3.2260,1.6774,2.2234,0.7162,33.61,35.07,793,7.93
00:28:40,3.2280,1.6806,2.2384,0.7209,33.84,35.30,795,7.95
00:28:50,3.2380,1.6849,2.2536,0.7256,34.07,35.53,797,7.97
00:29:00,3.2580,1.6915,2.2689,0.7303,34.30,35.76,798,7.98
00:29:10,3.2640,1.6963,2.2843,0.7350,34.53,35.99,803,8.03
00:29:20,3.2670,1.6964,2.2997,0.7397,34.76,36.22,805,8.05
00:29:30,3.2560,1.6893,2.3150,0.7444,35.00,36.45,801,8.01
00:29:40,3.2440,1.6857,2.3301,0.7491,35.23,36.68,798,7.98
00:29:50,3.2410,1.6842,2.3453,0.7538,35.45,36.91,797,7.97
00:30:00,3.2360,1.6833,2.3604,0.7584,35.68,37.14,797,7.97
00:30:10,3.2350,1.6807,2.3755,0.7631,35.91,37.37,794,7.94
00:30:20,3.2400,1.6832,2.3907,0.7678,36.14,37.60,795,7.95
00:30:30,3.2580,1.6883,2.4060,0.7725,36.37,37.83,797,7.97
00:30:40,3.2730,1.6965,2.4214,0.7772,36.60,38.06,799,7.99
00:30:50,3.2740,1.6972,2.4368,0.7819,36.84,38.29,801,8.01
00:31:00,3.2890,1.7044,2.4524,0.7866,37.07,38.52,803,8.03
00:31:10,3.2920,1.7094,2.4680,0.7914,37.31,38.75,805,8.05
00:31:20,3.3080,1.7149,2.4838,0.7962,37.55,38.99,808,8.08
00:31:30,3.3170,1.7187,2.4996,0.8009,37.79,39.22,811,8.11
00:31:40,3.3280,1.7243,2.5156,0.8057,38.03,39.45,811,8.11
00:31:50,2.9120,1.5870,2.5284,0.8101,38.22,39.67,705,7.05
00:32:00,3.1490,0.6663,2.5342,0.8120,38.31,39.76,655,6.55
00:32:10,2.3620,0.2702,2.5360,0.8127,38.34,39.80,190.0,1.9
00:32:20,2.3080,0.2251,2.5374,0.8134,38.36,39.83,154.6,1.546
00:32:30,2.3240,0.2569,2.5391,0.8141,38.38,39.86,152.1,1.521
00:32:40,2.2800,0.2021,2.5404,0.8146,38.40,39.89,192.0,1.92
00:32:50,2.2740,0.1884,2.5416,0.8152,38.42,39.92,130.1,1.301
00:33:00,2.2720,0.1837,2.5427,0.8157,38.44,39.94,124.7,1.247
00:33:10,2.2740,0.1787,2.5439,0.8162,38.46,39.97,122.0,1.22
00:33:20,2.2770,0.1716,2.5449,0.8166,38.47,39.99,121.8,1.218
00:33:30,2.2790,0.1705,2.5460,0.8171,38.49,40.01,122.9,1.229
00:33:40,2.2820,0.1731,2.5471,0.8176,38.51,40.04,125.3,1.253
00:33:50,2.2780,0.2019,2.5484,0.8182,38.52,40.06,128.9,1.289
00:34:00,2.2900,0.2107,2.5497,0.8187,38.54,40.09,134.2,1.342
00:34:10,2.2960,0.2033,2.5510,0.8193,38.56,40.12,142.5,1.425
00:34:20,2.3080,0.2402,2.5526,0.8200,38.59,40.15,159.2,1.592
00:34:30,2.3240,0.2827,2.5544,0.8208,38.62,40.19,197.0,1.97
00:34:40,2.3620,0.3890,2.5570,0.8218,38.65,40.24,300,3.0
00:34:50,2.3310,0.3099,2.5590,0.8227,38.68,40.29,375,3.75
00:35:00,2.8390,1.3138,2.5693,0.8263,38.84,40.46,562,5.62
00:35:10,2.8550,1.5136,2.5813,0.8305,39.02,40.67,423,4.23
00:35:20,3.3610,1.7541,2.5977,0.8354,39.27,40.91,803,8.03
00:35:30,3.4230,1.7729,2.6146,0.8403,39.52,41.15,859,8.59
00:35:40,3.4350,1.7773,2.6315,0.8453,39.78,41.39,854,8.54
00:35:50,3.4300,1.7732,2.6484,0.8502,40.04,41.63,852,8.52
00:36:00,3.4390,1.7764,2.6654,0.8551,40.29,41.87,855,8.55
00:36:10,3.2340,1.6941,2.6806,0.8598,40.52,42.10,855,8.55
00:36:20,2.3260,0.2668,2.6823,0.8606,40.55,42.14,382,3.82
00:36:30,2.5200,0.5280,2.6860,0.8621,40.61,42.21,298,2.98
00:36:40,3.0280,1.6305,2.6997,0.8666,40.81,42.43,764,7.64
00:36:50,2.8720,1.5497,2.7121,0.8709,41.00,42.65,687,6.87
00:37:00,2.8460,1.4456,2.7235,0.8749,41.17,42.84,659,6.59
00:37:10,3.3810,1.7480,2.7399,0.8798,41.42,43.08,811,8.11
00:37:20,3.3910,1.7519,2.7564,0.8846,41.67,43.32,839,8.39
00:37:30,3.3830,1.7485,2.7729,0.8895,41.92,43.56,837,8.37
00:37:40,3.3730,1.7430,2.7892,0.8943,42.16,43.79,833,8.33
00:37:50,3.3500,1.7369,2.8054,0.8992,42.41,44.03,828,8.28
00:38:00,3.3780,1.7447,2.8217,0.9040,42.66,44.27,831,8.31
00:38:10,3.3860,1.7510,2.8382,0.9089,42.91,44.50,832,8.32
00:38:20,3.3920,1.7499,2.8547,0.9137,43.15,44.74,833,8.33
00:38:30,3.3800,1.7475,2.8711,0.9186,43.40,44.98,831,8.31
00:38:40,3.3770,1.7451,2.8875,0.9234,43.65,45.22,831,8.31
00:38:50,3.3680,1.7415,2.9038,0.9283,43.90,45.45,828,8.28
00:39:00,3.3620,1.7381,2.9200,0.9331,44.14,45.69,825,8.25
00:39:10,3.3550,1.7369,2.9362,0.9379,44.39,45.93,825,8.25
00:39:20,3.3630,1.7374,2.9524,0.9427,44.63,46.16,824,8.24
00:39:30,3.3400,1.7285,2.9685,0.9475,44.87,46.40,822,8.22
00:39:40,3.3160,1.7166,2.9843,0.9523,45.11,46.63,817,8.17
00:39:50,3.2900,1.7061,2.9999,0.9570,45.35,46.86,811,8.11
00:40:00,3.2800,1.7014,3.0154,0.9618,45.58,47.10,808,8.08
00:40:10,3.2740,1.6986,3.0308,0.9665,45.82,47.33,805,8.05
00:40:20,3.2640,1.6944,3.0462,0.9712,46.05,47.56,801,8.01
00:40:30,3.2620,1.6945,3.0615,0.9759,46.28,47.79,803,8.03
00:40:40,3.2610,1.6941,3.0769,0.9806,46.51,48.02,801,8.01
00:40:50,3.2600,1.6935,3.0922,0.9853,46.75,48.25,801,8.01
00:41:00,3.2590,1.6907,3.1075,0.9900,46.98,48.48,800,8.0
00:41:10,3.2550,1.6926,3.1228,0.9947,47.21,48.71,801,8.01
00:41:20,3.2630,1.6942,3.1382,0.9994,47.44,48.94,802,8.02
00:41:30,3.2680,1.6973,3.1536,1.0041,47.67,49.17,803,8.03
00:41:40,3.2700,1.6990,3.1690,1.0089,47.91,49.40,804,8.04
00:41:50,3.2760,1.7000,3.1845,1.0136,48.14,49.63,805,8.05
00:42:00,3.2740,1.6996,3.1999,1.0183,48.37,49.86,806,8.06
00:42:10,3.2770,1.6989,3.2154,1.0230,48.61,50.09,803,8.03
00:42:20,3.2510,1.6912,3.2307,1.0277,48.84,50.32,799,7.99
00:42:30,3.2470,1.6872,3.2459,1.0324,49.07,50.55,800,8.0
00:42:40,3.2330,1.6811,3.2610,1.0371,49.30,50.78,796,7.96
00:42:50,3.2200,1.6762,3.2760,1.0417,49.52,51.01,793,7.93
00:43:00,3.2190,1.6744,3.2910,1.0464,49.75,51.24,792,7.92
00:43:10,3.2010,1.6667,3.3058,1.0510,49.97,51.47,789,7.89
00:43:20,3.1910,1.6646,3.3205,1.0556,50.20,51.69,785,7.85
00:43:30,3.2020,1.6662,3.3353,1.0603,50.42,51.92,786,7.86
00:43:40,3.2100,1.6746,3.3503,1.0649,50.65,52.15,790,7.9
00:43:50,3.2180,1.6738,3.3652,1.0696,50.87,52.37,792,7.92
00:44:00,3.2130,1.6745,3.3802,1.0742,51.10,52.60,789,7.89
00:44:10,3.2110,1.6730,3.3951,1.0789,51.32,52.83,791,7.91
00:44:20,3.2110,1.6717,3.4100,1.0835,51.55,53.06,790,7.9
00:44:30,3.2180,1.6757,3.4250,1.0882,51.78,53.28,788,7.88
00:44:40,3.2250,1.6784,3.4400,1.0928,52.00,53.51,790,7.9
00:44:50,3.2250,1.6767,3.4551,1.0975,52.23,53.74,792,7.92
00:45:00,3.2250,1.6762,3.4701,1.1021,52.46,53.97,793,7.93
00:45:10,3.2290,1.6805,3.4851,1.1068,52.69,54.20,790,7.9
00:45:20,3.2400,1.6805,3.5003,1.1115,52.91,54.43,794,7.94
00:45:30,3.2390,1.6839,3.5154,1.1161,53.14,54.65,793,7.93
00:45:40,3.2410,1.6835,3.5306,1.1208,53.37,54.88,796,7.96
00:45:50,3.2410,1.6838,3.5457,1.1255,53.60,55.11,795,7.95
00:46:00,3.2240,1.6760,3.5607,1.1302,53.83,55.34,792,7.92
00:46:10,3.2330,1.6805,3.5758,1.1348,54.06,55.57,790,7.9
00:46:20,3.2240,1.6752,3.5908,1.1395,54.28,55.80,790,7.9
00:46:30,3.2040,1.6676,3.6057,1.1441,54.51,56.02,786,7.86
00:46:40,3.1840,1.6607,3.6204,1.1487,54.73,56.25,781,7.81
00:46:50,3.1690,1.6519,3.6349,1.1533,54.95,56.47,779,7.79
00:47:00,3.1760,1.6559,3.6495,1.1579,55.17,56.70,781,7.81
00:47:10,3.1890,1.6633,3.6643,1.1625,55.39,56.93,781,7.81
00:47:20,3.2050,1.6653,3.6791,1.1672,55.62,57.15,785,7.85
00:47:30,3.1970,1.6654,3.6939,1.1718,55.84,57.38,784,7.84
00:47:40,3.2050,1.6711,3.7087,1.1764,56.07,57.61,785,7.85
00:47:50,3.2210,1.6759,3.7237,1.1811,56.29,57.83,792,7.92
00:48:00,3.2270,1.6778,3.7388,1.1857,56.52,58.06,794,7.94
00:48:10,3.2360,1.6821,3.7539,1.1904,56.75,58.29,794,7.94
00:48:20,3.2610,1.6917,3.7692,1.1951,56.98,58.52,797,7.97
00:48:30,3.2640,1.6939,3.7846,1.1998,57.21,58.75,798,7.98
00:48:40,3.2710,1.6998,3.8000,1.2045,57.45,58.98,802,8.02
00:48:50,3.2690,1.7020,3.8155,1.2093,57.68,59.21,803,8.03
00:49:00,3.2830,1.7036,3.8310,1.2140,57.91,59.45,805,8.05
00:49:10,3.2930,1.7090,3.8466,1.2187,58.15,59.68,806,8.06
00:49:20,3.2990,1.7113,3.8623,1.2235,58.39,59.91,810,8.1
00:49:30,3.3030,1.7146,3.8781,1.2283,58.63,60.15,811,8.11
00:49:40,3.3060,1.7179,3.8938,1.2330,58.86,60.38,813,8.13
00:49:50,3.3090,1.7162,3.9096,1.2378,59.10,60.61,813,8.13
00:50:00,3.3030,1.7164,3.9254,1.2426,59.34,60.85,812,8.12
00:50:10,3.3020,1.7147,3.9411,1.2473,59.58,61.08,810,8.1
00:50:20,3.3160,1.7196,3.9569,1.2521,59.82,61.31,814,8.14
00:50:30,3.3170,1.7214,3.9728,1.2569,60.06,61.55,816,8.16
00:50:40,3.3190,1.7209,3.9887,1.2617,60.30,61.78,816,8.16
00:50:50,3.3200,1.7228,4.0045,1.2665,60.54,62.02,817,8.17
00:51:00,3.3240,1.7238,4.0205,1.2712,60.78,62.25,816,8.16
00:51:10,3.3270,1.7252,4.0364,1.2760,61.02,62.48,818,8.18
00:51:20,3.3200,1.7207,4.0523,1.2808,61.26,62.72,817,8.17
00:51:30,3.3210,1.7206,4.0681,1.2856,61.50,62.95,819,8.19
00:51:40,3.3290,1.7240,4.0841,1.2904,61.74,63.19,818,8.18
00:51:50,3.3220,1.7216,4.1000,1.2952,61.98,63.42,818,8.18
00:52:00,3.3130,1.7186,4.1158,1.2999,62.22,63.65,813,8.13
00:52:10,3.3020,1.7135,4.1315,1.3047,62.46,63.89,813,8.13
00:52:20,3.2950,1.7103,4.1472,1.3095,62.69,64.12,811,8.11
00:52:30,3.2990,1.7127,4.1629,1.3142,62.93,64.35,811,8.11
00:52:40,3.2970,1.7130,4.1785,1.3190,63.17,64.59,813,8.13
00:52:50,3.2880,1.7098,4.1942,1.3237,63.40,64.82,808,8.08
00:53:00,3.2940,1.7094,4.2098,1.3285,63.64,65.05,810,8.1
00:53:10,3.3050,1.7157,4.2256,1.3332,63.88,65.29,809,8.09
00:53:20,3.3350,1.7308,4.2416,1.3380,64.12,65.52,818,8.18
00:53:30,3.3590,1.7380,4.2578,1.3429,64.37,65.76,824,8.24
00:53:40,3.3570,1.7386,4.2740,1.3477,64.61,65.99,825,8.25
00:53:50,3.3440,1.7344,4.2901,1.3525,64.85,66.23,822,8.22
00:54:00,3.3490,1.7347,4.3063,1.3573,65.10,66.47,823,8.23
00:54:10,3.3540,1.7381,4.3225,1.3622,65.34,66.70,825,8.25
00:54:20,3.3600,1.7415,4.3387,1.3670,65.59,66.94,825,8.25
00:54:30,3.3640,1.7395,4.3550,1.3718,65.83,67.18,826,8.26
00:54:40,3.3620,1.7399,4.3712,1.3767,66.08,67.41,824,8.24
00:54:50,3.3570,1.7369,4.3874,1.3815,66.33,67.65,821,8.21
00:55:00,3.3330,1.7288,4.4034,1.3863,66.57,67.88,820,8.2
00:55:10,3.3300,1.7242,4.4194,1.3911,66.81,68.12,818,8.18
00:55:20,3.3220,1.7229,4.4353,1.3959,67.05,68.35,814,8.14
00:55:30,3.3190,1.7218,4.4511,1.4007,67.29,68.59,816,8.16
00:55:40,3.3210,1.7216,4.4670,1.4054,67.53,68.82,816,8.16
00:55:50,3.3180,1.7194,4.4829,1.4102,67.77,69.05,816,8.16
00:56:00,3.3140,1.7166,4.4987,1.4150,68.01,69.29,812,8.12
00:56:10,3.3130,1.7180,4.5145,1.4198,68.25,69.52,812,8.12
00:56:20,3.2970,1.7108,4.5301,1.4245,68.48,69.75,810,8.1
00:56:30,3.2850,1.7043,4.5457,1.4292,68.72,69.99,808,8.08
00:56:40,3.2800,1.7059,4.5612,1.4340,68.95,70.22,808,8.08
00:56:50,3.2800,1.6992,4.5767,1.4387,69.19,70.45,804,8.04
00:57:00,3.2780,1.7052,4.5922,1.4434,69.42,70.68,805,8.05
00:57:10,3.2810,1.7046,4.6078,1.4482,69.66,70.91,808,8.08
00:57:20,3.2790,1.7057,4.6233,1.4529,69.89,71.15,803,8.03
00:57:30,3.2830,1.7039,4.6389,1.4576,70.13,71.38,806,8.06
00:57:40,3.2550,1.6925,4.6542,1.4623,70.36,71.61,801,8.01
00:57:50,3.2320,1.6769,4.6692,1.4670,70.59,71.84,797,7.97
00:58:00,3.2020,1.6703,4.6841,1.4716,70.81,72.06,789,7.89
00:58:10,3.2220,1.6730,4.6990,1.4763,71.04,72.29,789,7.89
00:58:20,3.1920,1.6701,4.7139,1.4809,71.26,72.52,789,7.89
00:58:30,3.2130,1.6722,4.7288,1.4856,71.49,72.74,790,7.9
00:58:40,3.2050,1.6696,4.7436,1.4902,71.71,72.97,791,7.91
00:58:50,3.1950,1.6668,4.7584,1.4948,71.93,73.20,788,7.88
00:59:00,3.2220,1.6734,4.7734,1.4995,72.16,73.43,789,7.89
00:59:10,3.2320,1.6799,4.7885,1.5042,72.39,73.65,793,7.93
00:59:20,3.2310,1.6816,4.8036,1.5088,72.62,73.88,789,7.89
00:59:30,3.2390,1.6839,4.8187,1.5135,72.85,74.11,795,7.95
00:59:40,3.2460,1.6876,4.8340,1.5182,73.08,74.34,795,7.95
00:59:50,3.2600,1.6908,4.8493,1.5229,73.31,74.57,798,7.98
01:00:00,3.2580,1.6928,4.8646,1.5276,73.54,74.80,800,8.0
01:00:10,3.2660,1.6932,4.8799,1.5323,73.77,75.03,799,7.99
01:00:20,3.2580,1.6935,4.8953,1.5370,74.00,75.26,800,8.0
01:00:30,3.2640,1.6946,4.9106,1.5417,74.23,75.49,797,7.97
01:00:40,3.2660,1.6973,4.9260,1.5464,74.47,75.72,799,7.99
01:00:50,3.2780,1.7033,4.9415,1.5511,74.70,75.96,804,8.04
01:01:00,3.2930,1.7086,4.9572,1.5559,74.94,76.19,806,8.06
01:01:10,3.3020,1.7113,4.9729,1.5606,75.18,76.42,806,8.06
01:01:20,3.3110,1.7164,4.9887,1.5654,75.41,76.65,810,8.1
01:01:30,3.3110,1.7164,5.0044,1.5702,75.65,76.89,810,8.1
01:01:40,3.3180,1.7191,5.0203,1.5750,75.89,77.12,812,8.12
01:01:50,3.3240,1.7214,5.0362,1.5797,76.13,77.36,816,8.16
01:02:00,3.3360,1.7272,5.0522,1.5845,76.37,77.59,811,8.11
01:02:10,3.3540,1.7371,5.0684,1.5894,76.62,77.83,817,8.17
01:02:20,3.3090,1.7162,5.0841,1.5941,76.86,78.06,819,8.19
01:02:30,2.2690,0.1698,5.0852,1.5946,76.87,78.08,208,2.08
01:02:40,2.2690,0.1674,5.0863,1.5951,76.89,78.11,111.4,1.114
01:02:50,2.2710,0.1675,5.0873,1.5955,76.91,78.13,109.5,1.095
01:03:00,2.2720,0.1713,5.0884,1.5960,76.92,78.15,111.4,1.114
01:03:10,2.2810,0.1855,5.0896,1.5965,76.94,78.18,118.5,1.185
01:03:20,2.2980,0.2257,5.0910,1.5972,76.96,78.21,136.4,1.364
01:03:30,2.4800,0.5314,5.0947,1.5986,77.02,78.28,381,3.81
01:03:40,2.3290,0.3193,5.0968,1.5995,77.05,78.32,411,4.11
01:03:50,2.9800,1.6066,5.1100,1.6040,77.25,78.54,443,4.43
01:04:00,2.6190,0.3856,5.1129,1.6050,77.29,78.60,600,6.0
01:04:10,2.5200,0.3734,5.1155,1.6061,77.33,78.65,220,2.2
01:04:20,5.3200,0.0092,5.1156,1.6061,77.33,78.65,500,5.0
01:04:30,3.2380,1.6732,5.1307,1.6108,77.56,78.87,799,7.99
01:04:40,2.3040,0.2418,5.1322,1.6114,77.58,78.91,256,2.56
01:04:50,2.3040,0.2439,5.1338,1.6121,77.61,78.94,182.5,1.825
01:05:00,2.3520,0.3422,5.1360,1.6131,77.64,78.99,264,2.64
01:05:10,2.3740,0.3952,5.1386,1.6142,77.68,79.04,252,2.52
01:05:20,2.3890,0.4366,5.1415,1.6154,77.72,79.10,524,5.24
01:05:30,2.4670,0.5561,5.1453,1.6169,77.78,79.18,463,4.63
01:05:40,3.5170,0.9319,5.1544,1.6195,77.92,79.30,405,4.05
01:05:50,3.4780,1.8012,5.1718,1.6245,78.18,79.55,836,8.36
01:06:00,3.5060,1.8128,5.1895,1.6295,78.45,79.79,863,8.63
01:06:10,2.8730,1.4680,5.2012,1.6336,78.63,79.99,821,8.21
01:06:20,3.5540,1.8346,5.2193,1.6387,78.90,80.24,871,8.71
01:06:30,3.5740,1.8456,5.2376,1.6438,79.18,80.49,882,8.82
01:06:40,3.5620,1.8400,5.2558,1.6490,79.45,80.74,878,8.78
01:06:50,3.4900,1.8048,5.2733,1.6540,79.72,80.99,871,8.71
01:07:00,3.4570,1.7852,5.2905,1.6589,79.98,81.23,860,8.6
01:07:10,3.2470,1.6902,5.3057,1.6636,80.21,81.46,826,8.26
01:07:20,3.4670,1.7891,5.3229,1.6686,80.47,81.71,849,8.49
01:07:30,3.5100,1.8157,5.3406,1.6736,80.74,81.95,863,8.63
01:07:40,3.4070,1.7648,5.3573,1.6785,80.99,82.19,869,8.69
01:07:50,3.5260,1.8192,5.3752,1.6836,81.26,82.44,849,8.49
01:08:00,2.2940,0.2100,5.3765,1.6842,81.28,82.47,797,7.97
01:08:10,2.2790,0.2079,5.3778,1.6847,81.30,82.50,158.7,1.587
01:08:20,2.2760,0.2021,5.3791,1.6853,81.32,82.53,147.0,1.47
01:08:30,2.2760,0.1985,5.3804,1.6859,81.34,82.55,143.8,1.438
01:08:40,2.2770,0.1983,5.3816,1.6864,81.35,82.58,142.3,1.423
01:08:50,2.2790,0.1998,5.3829,1.6870,81.37,82.61,142.1,1.421
01:09:00,2.2820,0.2133,5.3842,1.6876,81.39,82.64,145.3,1.453
01:09:10,2.2990,0.2469,5.3858,1.6882,81.42,82.67,160.2,1.602
01:09:20,2.3210,0.3104,5.3878,1.6891,81.45,82.71,252,2.52
01:09:30,2.3060,0.2650,5.3895,1.6898,81.47,82.75,399,3.99
01:09:40,2.3050,0.2545,5.3911,1.6906,81.50,82.78,205,2.05
01:09:50,2.3070,0.2598,5.3928,1.6913,81.52,82.82,185.0,1.85
01:10:00,2.3270,0.3279,5.3949,1.6922,81.56,82.86,289,2.89
01:10:10,2.3870,0.4600,5.3980,1.6935,81.60,82.92,281,2.81
01:10:20,3.3810,1.7587,5.4145,1.6983,81.85,83.16,744,7.44
01:10:30,3.4970,1.8079,5.4320,1.7034,82.12,83.41,839,8.39
01:10:40,3.4600,1.7922,5.4493,1.7083,82.38,83.65,810,8.1
01:10:50,3.4130,1.7601,5.4660,1.7132,82.63,83.89,798,7.98
01:11:00,3.4680,1.7942,5.4832,1.7182,82.89,84.14,857,8.57
01:11:10,3.4510,1.7878,5.5004,1.7232,83.15,84.38,854,8.54
01:11:20,3.4710,1.7948,5.5177,1.7282,83.41,84.62,855,8.55
01:11:30,3.4780,1.7969,5.5350,1.7332,83.67,84.87,858,8.58
01:11:40,3.4660,1.7961,5.5523,1.7382,83.94,85.11,860,8.6
01:11:50,3.4770,1.7985,5.5697,1.7431,84.20,85.36,859,8.59
01:12:00,3.5090,1.8137,5.5874,1.7482,84.47,85.60,863,8.63
01:12:10,3.5330,1.8280,5.6053,1.7533,84.74,85.85,872,8.72
01:12:20,3.5550,1.8397,5.6235,1.7584,85.01,86.10,877,8.77
01:12:30,3.4370,1.7762,5.6404,1.7633,85.27,86.34,876,8.76
01:12:40,4.8060,0.0071,5.6405,1.7633,85.27,86.35,765,7.65
01:12:50,3.3480,1.7286,5.6566,1.7681,85.51,86.58,747,7.47
01:13:00,2.7690,1.2596,5.6663,1.7716,85.66,86.75,740,7.4
01:13:10,2.2710,0.9750,5.6725,1.7743,85.75,86.88,455,4.55
01:13:20,3.5800,1.8482,5.6908,1.7795,86.03,87.14,840,8.4
01:13:30,3.5890,1.8565,5.7093,1.7846,86.31,87.39,886,8.86
01:13:40,3.5830,1.8506,5.7278,1.7898,86.59,87.64,889,8.89
01:13:50,3.5590,1.8406,5.7460,1.7949,86.86,87.89,882,8.82
01:14:00,3.5450,1.8343,5.7640,1.8000,87.14,88.14,878,8.78
01:14:10,3.5450,1.8333,5.7821,1.8051,87.41,88.39,877,8.77
01:14:20,3.5470,1.8329,5.8001,1.8102,87.68,88.64,873,8.73
01:14:30,3.5380,1.8284,5.8181,1.8152,87.95,88.89,873,8.73
01:14:40,3.5300,1.8249,5.8360,1.8203,88.22,89.14,870,8.7
01:14:50,3.5300,1.8262,5.8539,1.8254,88.49,89.38,867,8.67
01:15:00,3.5300,1.8246,5.8718,1.8304,88.76,89.63,868,8.68
01:15:10,3.5260,1.8227,5.8896,1.8355,89.03,89.88,867,8.67
01:15:20,3.5200,1.8201,5.9074,1.8406,89.30,90.13,865,8.65
01:15:30,3.5110,1.8164,5.9252,1.8456,89.57,90.37,863,8.63
01:15:40,3.5110,1.8145,5.9429,1.8507,89.84,90.62,862,8.62
01:15:50,3.5120,1.8143,5.9606,1.8557,90.11,90.87,861,8.61
01:16:00,3.5090,1.8153,5.9782,1.8607,90.37,91.12,860,8.6
01:16:10,3.5130,1.8162,5.9960,1.8658,90.64,91.36,861,8.61
01:16:20,3.5170,1.8177,6.0137,1.8708,90.91,91.61,860,8.6
01:16:30,3.5210,1.8216,6.0315,1.8759,91.18,91.86,863,8.63
01:16:40,3.5270,1.8233,6.0494,1.8810,91.45,92.11,864,8.64
01:16:50,3.5190,1.8211,6.0672,1.8860,91.72,92.35,863,8.63
01:17:00,3.5190,1.8185,6.0850,1.8911,91.99,92.60,862,8.62
01:17:10,3.5090,1.8146,6.1027,1.8961,92.26,92.85,862,8.62
01:17:20,3.5020,1.8096,6.1203,1.9011,92.52,93.09,854,8.54
01:17:30,3.5000,1.8096,6.1379,1.9062,92.79,93.34,856,8.56
01:17:40,3.5090,1.8149,6.1556,1.9112,93.05,93.59,857,8.57
01:17:50,3.5150,1.8177,6.1733,1.9162,93.32,93.83,857,8.57
01:18:00,3.5190,1.8194,6.1911,1.9213,93.59,94.08,861,8.61
01:18:10,3.5040,1.8115,6.2087,1.9263,93.86,94.33,858,8.58
01:18:20,3.4790,1.8002,6.2261,1.9313,94.12,94.57,853,8.53
01:18:30,3.4870,1.8019,6.2436,1.9363,94.39,94.82,848,8.48
01:18:40,3.5030,1.8086,6.2612,1.9414,94.65,95.06,853,8.53
01:18:50,3.4980,1.8080,6.2787,1.9464,94.92,95.31,854,8.54
01:19:00,3.4970,1.8084,6.2963,1.9514,95.18,95.56,854,8.54
01:19:10,3.4980,1.8094,6.3139,1.9564,95.45,95.80,854,8.54
01:19:20,3.5110,1.8148,6.3316,1.9615,95.72,96.05,856,8.56
01:19:30,3.5100,1.8161,6.3493,1.9665,95.98,96.30,859,8.59
01:19:40,3.5120,1.8185,6.3670,1.9716,96.25,96.54,859,8.59
01:19:50,3.5370,1.8293,6.3850,1.9767,96.52,96.79,864,8.64
01:20:00,3.5490,1.8355,6.4031,1.9818,96.80,97.04,868,8.68
01:20:10,3.5480,1.8345,6.4212,1.9868,97.07,97.29,869,8.69
01:20:20,3.5290,1.8266,6.4391,1.9919,97.34,97.54,865,8.65
01:20:30,3.5210,1.8201,6.4569,1.9970,97.61,97.79,866,8.66
01:20:40,3.4990,1.8094,6.4745,2.0020,97.88,98.03,856,8.56
01:20:50,3.5070,1.8136,6.4921,2.0070,98.14,98.28,861,8.61
01:21:00,3.5220,1.8207,6.5100,2.0121,98.41,98.53,863,8.63
01:21:10,3.5110,1.8166,6.5277,2.0171,98.68,98.77,863,8.63
01:21:20,3.5210,1.8198,6.5455,2.0222,98.95,99.02,858,8.58
01:21:30,3.5710,1.8202,6.5635,2.0273,99.22,99.27,861,8.61
01:21:40,3.4860,1.8078,6.5810,2.0323,99.49,99.52,858,8.58
01:21:50,3.4200,1.7747,6.5979,2.0372,99.74,99.76,851,8.51
01:22:00,3.4450,1.7871,6.6150,2.0422,100.00,100.00,848,8.48
01:22:10,3.4370,1.7796,6.6320,2.0471,100.26,100.24,849,8.49