File: output/5/gznomad7-2.csv
Time,Voltage(V),Current(A),Energy(Wh),Capacity(Ah),Energy Proportion(%),Capacity Proportion(%),Irradiance(W/m2),Power(W),Power Score,Watts/oz,cW/oz,Sun Score,Irradiance/100,Efficiency(%)
00:00:00,4.6170,0.0094,0.0001,0.0000,0.01,0.00,187.7,0.04,0.6,0.0,0.0,18.8,1.877,0.03
00:00:30,4.6170,0.0094,0.0005,0.0001,0.03,0.01,190.7,0.04,0.6,0.0,0.0,19.1,1.907,0.03
00:01:00,4.6170,0.0093,0.0009,0.0002,0.05,0.02,190.8,0.04,0.6,0.0,0.0,19.1,1.908,0.03
00:01:30,5.1340,0.0096,0.0012,0.0003,0.07,0.03,191.4,0.05,0.7,0.0,0.0,19.1,1.914,0.04
00:02:00,4.6180,0.0095,0.0020,0.0004,0.11,0.06,190.5,0.04,0.6,0.0,0.0,19.1,1.905,0.03
00:02:30,4.6180,0.0095,0.0027,0.0006,0.14,0.08,193.5,0.04,0.6,0.0,0.0,19.4,1.935,0.03
00:03:00,4.6180,0.0094,0.0035,0.0008,0.19,0.11,201.0,0.04,0.6,0.0,0.0,20.1,2.01,0.03
00:03:30,4.0780,0.0569,0.0051,0.0013,0.28,0.17,203.0,0.23,3.3,0.01,0.1,20.3,2.03,0.15
00:04:00,4.3990,0.0344,0.0065,0.0017,0.35,0.23,208.0,0.15,2.1,0.01,0.1,20.8,2.08,0.1
00:04:30,4.6190,0.0094,0.0069,0.0018,0.37,0.24,518.0,0.04,0.6,0.0,0.0,51.8,5.18,0.01
00:05:00,4.6180,0.0095,0.0085,0.0024,0.46,0.32,297.0,0.04,0.6,0.0,0.0,29.7,2.97,0.02
00:05:30,4.6190,0.0096,0.0089,0.0025,0.48,0.33,235.0,0.04,0.6,0.0,0.0,23.5,2.35,0.02
00:06:00,4.6190,0.0094,0.0092,0.0026,0.50,0.34,225.0,0.04,0.6,0.0,0.0,22.5,2.25,0.02
00:06:30,4.6170,0.0168,0.0099,0.0027,0.53,0.36,194.5,0.08,1.1,0.01,0.1,19.5,1.945,0.06
00:07:00,4.4220,0.0457,0.0114,0.0032,0.62,0.42,180.0,0.2,2.9,0.01,0.1,18.0,1.8,0.15
00:07:30,2.7060,0.1160,0.0131,0.0037,0.71,0.49,177.4,0.31,4.4,0.02,0.2,17.7,1.774,0.24
00:08:00,4.6790,0.0094,0.0142,0.0041,0.77,0.54,180.5,0.04,0.6,0.0,0.0,18.1,1.805,0.03
00:08:30,5.1360,0.0096,0.0153,0.0045,0.83,0.59,200.0,0.05,0.7,0.0,0.0,20.0,2.0,0.03
00:09:00,4.8870,0.0095,0.0157,0.0046,0.85,0.60,942.0,0.05,0.7,0.0,0.0,94.2,9.42,0.01
00:09:30,5.0360,0.0096,0.0222,0.0059,1.20,0.78,920.0,0.05,0.7,0.0,0.0,92.0,9.2,0.01
00:10:00,5.0090,0.0096,0.0226,0.0060,1.22,0.79,918.0,0.05,0.7,0.0,0.0,91.8,9.18,0.01
00:10:30,4.9010,0.0095,0.0256,0.0066,1.38,0.87,908.0,0.05,0.7,0.0,0.0,90.8,9.08,0.01
00:11:00,4.2170,0.3321,0.0337,0.0083,1.82,1.10,900.0,1.4,20.0,0.09,0.9,90.0,9.0,0.21
00:11:30,4.7150,0.0095,0.0373,0.0091,2.01,1.20,914.0,0.04,0.6,0.0,0.0,91.4,9.14,0.01
00:12:00,5.0380,0.0095,0.0377,0.0091,2.03,1.21,902.0,0.05,0.7,0.0,0.0,90.2,9.02,0.01
00:12:30,3.2960,0.4340,0.0455,0.0115,2.45,1.53,912.0,1.43,20.4,0.09,0.9,91.2,9.12,0.21
00:13:00,5.1390,0.0096,0.0535,0.0140,2.89,1.85,916.0,0.05,0.7,0.0,0.0,91.6,9.16,0.01
00:13:30,4.8840,0.0095,0.0575,0.0152,3.10,2.01,919.0,0.05,0.7,0.0,0.0,91.9,9.19,0.01
00:14:00,4.8270,0.1713,0.0650,0.0172,3.50,2.27,917.0,0.83,11.9,0.05,0.5,91.7,9.17,0.12
00:14:30,3.1210,0.4117,0.0759,0.0206,4.09,2.73,915.0,1.28,18.3,0.08,0.8,91.5,9.15,0.19
00:15:00,3.1040,0.4094,0.0867,0.0241,4.67,3.19,916.0,1.27,18.1,0.08,0.8,91.6,9.16,0.19
00:15:30,3.1110,0.4197,0.0974,0.0276,5.25,3.64,929.0,1.31,18.7,0.08,0.8,92.9,9.29,0.19
00:16:00,5.0400,0.0096,0.1013,0.0288,5.46,3.80,925.0,0.05,0.7,0.0,0.0,92.5,9.25,0.01
00:16:30,2.3640,0.1016,0.1091,0.0314,5.88,4.15,397.0,0.24,3.4,0.02,0.2,39.7,3.97,0.08
00:17:00,2.3180,0.0811,0.1107,0.0321,5.97,4.24,216.0,0.19,2.7,0.01,0.1,21.6,2.16,0.12
00:17:30,2.3750,0.2081,0.1141,0.0335,6.15,4.43,933.0,0.49,7.0,0.03,0.3,93.3,9.33,0.07
00:18:00,2.3710,0.2094,0.1180,0.0352,6.37,4.65,915.0,0.5,7.1,0.03,0.3,91.5,9.15,0.07
00:18:30,2.3670,0.1932,0.1215,0.0366,6.55,4.84,903.0,0.46,6.6,0.03,0.3,90.3,9.03,0.07
00:19:00,2.3620,0.1946,0.1254,0.0383,6.76,5.06,915.0,0.46,6.6,0.03,0.3,91.5,9.15,0.07
00:19:30,4.8970,0.0095,0.1302,0.0396,7.02,5.23,907.0,0.05,0.7,0.0,0.0,90.7,9.07,0.01
00:20:00,4.8740,0.0094,0.1306,0.0397,7.04,5.24,913.0,0.05,0.7,0.0,0.0,91.3,9.13,0.01
00:20:30,4.6850,0.0095,0.1357,0.0408,7.32,5.40,917.0,0.04,0.6,0.0,0.0,91.7,9.17,0.01
00:21:00,3.0660,0.4326,0.1397,0.0421,7.53,5.57,909.0,1.33,19.0,0.08,0.8,90.9,9.09,0.2
00:21:30,3.0300,0.4388,0.1506,0.0457,8.12,6.05,902.0,1.33,19.0,0.08,0.8,90.2,9.02,0.2
00:22:00,3.0310,0.4335,0.1616,0.0493,8.72,6.52,893.0,1.31,18.7,0.08,0.8,89.3,8.93,0.2
00:22:30,2.7670,0.3890,0.1719,0.0528,9.27,6.99,896.0,1.08,15.4,0.07,0.7,89.6,8.96,0.16
00:23:00,2.3730,0.2284,0.1774,0.0551,9.57,7.28,894.0,0.54,7.7,0.03,0.3,89.4,8.94,0.08
00:23:30,2.3510,0.1930,0.1813,0.0567,9.78,7.50,884.0,0.45,6.4,0.03,0.3,88.4,8.84,0.07
00:24:00,2.3480,0.2084,0.1854,0.0585,10.00,7.73,889.0,0.49,7.0,0.03,0.3,88.9,8.89,0.07
00:24:30,2.3470,0.1919,0.1892,0.0601,10.20,7.95,890.0,0.45,6.4,0.03,0.3,89.0,8.9,0.07
00:25:00,2.3460,0.1941,0.1929,0.0617,10.40,8.16,888.0,0.46,6.6,0.03,0.3,88.8,8.88,0.07
00:25:30,2.3450,0.1902,0.1969,0.0634,10.62,8.38,879.0,0.45,6.4,0.03,0.3,87.9,8.79,0.07
00:26:00,2.3490,0.1942,0.2007,0.0650,10.83,8.60,871.0,0.46,6.6,0.03,0.3,87.1,8.71,0.07
00:26:30,2.3480,0.1898,0.2045,0.0666,11.03,8.81,872.0,0.45,6.4,0.03,0.3,87.2,8.72,0.07
00:27:00,2.3540,0.1933,0.2083,0.0682,11.23,9.02,875.0,0.46,6.6,0.03,0.3,87.5,8.75,0.07
00:27:30,2.3450,0.2052,0.2122,0.0699,11.45,9.25,877.0,0.48,6.9,0.03,0.3,87.7,8.77,0.07
00:28:00,2.3470,0.2095,0.2162,0.0716,11.66,9.47,883.0,0.49,7.0,0.03,0.3,88.3,8.83,0.07
00:28:30,2.3560,0.2089,0.2203,0.0733,11.88,9.70,888.0,0.49,7.0,0.03,0.3,88.8,8.88,0.07
00:29:00,2.3420,0.1942,0.2240,0.0749,12.08,9.91,888.0,0.45,6.4,0.03,0.3,88.8,8.88,0.07
00:29:30,2.3490,0.1902,0.2280,0.0766,12.29,10.13,894.0,0.45,6.4,0.03,0.3,89.4,8.94,0.07
00:30:00,2.3420,0.1884,0.2317,0.0782,12.49,10.34,888.0,0.44,6.3,0.03,0.3,88.8,8.88,0.07
00:30:30,2.3540,0.2080,0.2355,0.0798,12.70,10.56,890.0,0.49,7.0,0.03,0.3,89.0,8.9,0.07
00:31:00,2.3440,0.2000,0.2393,0.0814,12.90,10.77,896.0,0.47,6.7,0.03,0.3,89.6,8.96,0.07
00:31:30,2.3460,0.2099,0.2433,0.0831,13.12,10.99,894.0,0.49,7.0,0.03,0.3,89.4,8.94,0.07
00:32:00,2.3450,0.1818,0.2470,0.0847,13.32,11.20,892.0,0.43,6.1,0.03,0.3,89.2,8.92,0.07
00:32:30,2.3440,0.1940,0.2508,0.0863,13.52,11.42,909.0,0.45,6.4,0.03,0.3,90.9,9.09,0.07
00:33:00,2.3080,0.0832,0.2526,0.0871,13.62,11.52,290.0,0.19,2.7,0.01,0.1,29.0,2.9,0.09
00:33:30,2.3410,0.1689,0.2557,0.0884,13.79,11.70,826.0,0.4,5.7,0.03,0.3,82.6,8.26,0.07
00:34:00,2.3420,0.1568,0.2582,0.0895,13.92,11.84,646.0,0.37,5.3,0.02,0.2,64.6,6.46,0.08
00:34:30,2.3040,0.0774,0.2601,0.0903,14.02,11.95,170.8,0.18,2.6,0.01,0.1,17.1,1.708,0.14
00:35:00,2.3110,0.0761,0.2624,0.0913,14.15,12.08,214.0,0.18,2.6,0.01,0.1,21.4,2.14,0.11
00:35:30,2.3080,0.0753,0.2638,0.0920,14.23,12.16,152.4,0.17,2.4,0.01,0.1,15.2,1.524,0.15
00:36:00,4.5110,0.0073,0.2651,0.0925,14.30,12.23,362.0,0.03,0.4,0.0,0.0,36.2,3.62,0.01
00:36:30,2.5130,0.2042,0.2686,0.0938,14.48,12.40,620.0,0.51,7.3,0.03,0.3,62.0,6.2,0.11
00:37:00,2.3270,0.1178,0.2705,0.0946,14.59,12.51,385.0,0.27,3.9,0.02,0.2,38.5,3.85,0.09
00:37:30,2.3080,0.0758,0.2721,0.0953,14.67,12.60,166.5,0.17,2.4,0.01,0.1,16.7,1.665,0.14
00:38:00,2.3060,0.0736,0.2735,0.0959,14.75,12.68,153.4,0.17,2.4,0.01,0.1,15.3,1.534,0.15
00:38:30,2.3860,0.0815,0.2753,0.0966,14.85,12.78,151.1,0.19,2.7,0.01,0.1,15.1,1.511,0.17
00:39:00,2.3130,0.0753,0.2769,0.0973,14.93,12.87,150.6,0.17,2.4,0.01,0.1,15.1,1.506,0.15
00:39:30,2.7940,0.1307,0.2789,0.0981,15.04,12.97,154.0,0.37,5.3,0.02,0.2,15.4,1.54,0.32
00:40:00,2.8910,0.1476,0.2822,0.0993,15.22,13.13,165.0,0.43,6.1,0.03,0.3,16.5,1.65,0.35
00:40:30,4.7130,0.2095,0.2863,0.1003,15.44,13.27,678.0,0.99,14.1,0.06,0.6,67.8,6.78,0.2
00:41:00,4.7740,0.0095,0.2936,0.1020,15.83,13.49,901.0,0.05,0.7,0.0,0.0,90.1,9.01,0.01
00:41:30,3.0580,0.4672,0.3027,0.1045,16.33,13.82,893.0,1.43,20.4,0.09,0.9,89.3,8.93,0.22
00:42:00,2.6460,0.3290,0.3130,0.1080,16.88,14.29,761.0,0.87,12.4,0.05,0.5,76.1,7.61,0.15
00:42:30,2.3390,0.1553,0.3176,0.1099,17.13,14.54,526.0,0.36,5.1,0.02,0.2,52.6,5.26,0.09
00:43:00,2.3650,0.2295,0.3210,0.1114,17.31,14.73,913.0,0.54,7.7,0.03,0.3,91.3,9.13,0.08
00:43:30,2.3600,0.2216,0.3254,0.1132,17.55,14.97,919.0,0.52,7.4,0.03,0.3,91.9,9.19,0.08
00:44:00,2.3580,0.2125,0.3296,0.1150,17.77,15.21,804.0,0.5,7.1,0.03,0.3,80.4,8.04,0.08
00:44:30,2.3570,0.2105,0.3335,0.1167,17.99,15.43,845.0,0.5,7.1,0.03,0.3,84.5,8.45,0.08
00:45:00,2.3580,0.2039,0.3376,0.1184,18.21,15.66,889.0,0.48,6.9,0.03,0.3,88.9,8.89,0.07
00:45:30,2.3590,0.2069,0.3417,0.1202,18.43,15.89,877.0,0.49,7.0,0.03,0.3,87.7,8.77,0.08
00:46:00,2.3280,0.1257,0.3448,0.1215,18.59,16.06,330.0,0.29,4.1,0.02,0.2,33.0,3.3,0.12
00:46:30,2.3650,0.2024,0.3480,0.1228,18.77,16.24,673.0,0.48,6.9,0.03,0.3,67.3,6.73,0.1
00:47:00,2.3570,0.1861,0.3519,0.1245,18.98,16.46,732.0,0.44,6.3,0.03,0.3,73.2,7.32,0.08
00:47:30,2.3210,0.0875,0.3541,0.1254,19.10,16.59,195.0,0.2,2.9,0.01,0.1,19.5,1.95,0.14
00:48:00,2.3650,0.2003,0.3572,0.1267,19.26,16.76,656.0,0.47,6.7,0.03,0.3,65.6,6.56,0.1
00:48:30,4.1180,0.4676,0.3640,0.1286,19.63,17.01,899.0,1.93,27.6,0.12,1.2,89.9,8.99,0.29
00:49:00,3.0330,0.4440,0.3751,0.1323,20.23,17.50,886.0,1.35,19.3,0.08,0.8,88.6,8.86,0.21
00:49:30,2.4010,0.2310,0.3812,0.1347,20.56,17.82,877.0,0.55,7.9,0.03,0.3,87.7,8.77,0.08
00:50:00,2.3460,0.1829,0.3852,0.1364,20.78,18.04,851.0,0.43,6.1,0.03,0.3,85.1,8.51,0.07
00:50:30,2.3390,0.1503,0.3887,0.1379,20.96,18.24,508.0,0.35,5.0,0.02,0.2,50.8,5.08,0.09
00:51:00,2.2960,0.0627,0.3899,0.1384,21.03,18.31,99.7,0.14,2.0,0.01,0.1,10.0,0.997,0.19
00:51:30,2.3000,0.0627,0.3911,0.1390,21.09,18.38,91.9,0.14,2.0,0.01,0.1,9.2,0.919,0.21
00:52:00,2.3760,0.0625,0.3925,0.1395,21.17,18.45,94.6,0.15,2.1,0.01,0.1,9.5,0.946,0.21
00:52:30,2.5820,0.2549,0.3952,0.1406,21.31,18.60,407.0,0.66,9.4,0.04,0.4,40.7,4.07,0.22
00:53:00,4.6850,0.0093,0.3976,0.1411,21.44,18.66,856.0,0.04,0.6,0.0,0.0,85.6,8.56,0.01
00:53:30,3.0200,0.4474,0.4089,0.1448,22.05,19.15,862.0,1.35,19.3,0.08,0.8,86.2,8.62,0.21
00:54:00,2.4970,0.3120,0.4174,0.1479,22.51,19.56,855.0,0.78,11.1,0.05,0.5,85.5,8.55,0.12
00:54:30,2.3550,0.2123,0.4221,0.1498,22.76,19.82,854.0,0.5,7.1,0.03,0.3,85.4,8.54,0.08
00:55:00,2.3510,0.2024,0.4260,0.1515,22.97,20.03,855.0,0.48,6.9,0.03,0.3,85.5,8.55,0.08
00:55:30,2.3550,0.2051,0.4300,0.1532,23.19,20.26,852.0,0.48,6.9,0.03,0.3,85.2,8.52,0.08
00:56:00,2.3600,0.2061,0.4341,0.1550,23.41,20.49,845.0,0.49,7.0,0.03,0.3,84.5,8.45,0.08
00:56:30,2.3680,0.2111,0.4382,0.1567,23.63,20.72,842.0,0.5,7.1,0.03,0.3,84.2,8.42,0.08
00:57:00,2.3480,0.1939,0.4420,0.1583,23.84,20.94,836.0,0.46,6.6,0.03,0.3,83.6,8.36,0.07
00:57:30,2.3660,0.1981,0.4459,0.1599,24.05,21.15,834.0,0.47,6.7,0.03,0.3,83.4,8.34,0.08
00:58:00,2.3500,0.1862,0.4497,0.1616,24.25,21.36,829.0,0.44,6.3,0.03,0.3,82.9,8.29,0.07
00:58:30,2.3580,0.1999,0.4535,0.1632,24.46,21.58,837.0,0.47,6.7,0.03,0.3,83.7,8.37,0.08
00:59:00,2.3530,0.1852,0.4574,0.1648,24.67,21.80,826.0,0.44,6.3,0.03,0.3,82.6,8.26,0.07
00:59:30,2.3480,0.1845,0.4612,0.1664,24.87,22.01,828.0,0.43,6.1,0.03,0.3,82.8,8.28,0.07
01:00:00,2.3560,0.2019,0.4649,0.1680,25.07,22.22,836.0,0.48,6.9,0.03,0.3,83.6,8.36,0.08
01:00:30,2.3500,0.1952,0.4687,0.1696,25.27,22.43,834.0,0.46,6.6,0.03,0.3,83.4,8.34,0.07
01:01:00,2.3480,0.2061,0.4725,0.1713,25.48,22.65,834.0,0.48,6.9,0.03,0.3,83.4,8.34,0.08
01:01:30,2.3560,0.2101,0.4763,0.1729,25.69,22.86,837.0,0.49,7.0,0.03,0.3,83.7,8.37,0.08
01:02:00,2.3520,0.1854,0.4801,0.1745,25.89,23.07,819.0,0.44,6.3,0.03,0.3,81.9,8.19,0.07
01:02:30,2.3460,0.1965,0.4838,0.1761,26.09,23.28,832.0,0.46,6.6,0.03,0.3,83.2,8.32,0.07
01:03:00,2.3500,0.1992,0.4875,0.1776,26.29,23.49,838.0,0.47,6.7,0.03,0.3,83.8,8.38,0.08
01:03:30,2.3490,0.2031,0.4913,0.1793,26.50,23.71,837.0,0.48,6.9,0.03,0.3,83.7,8.37,0.08
01:04:00,2.3490,0.1855,0.4951,0.1809,26.70,23.92,838.0,0.44,6.3,0.03,0.3,83.8,8.38,0.07
01:04:30,2.3480,0.1875,0.4988,0.1825,26.90,24.13,841.0,0.44,6.3,0.03,0.3,84.1,8.41,0.07
01:05:00,2.3560,0.1947,0.5027,0.1841,27.11,24.34,843.0,0.46,6.6,0.03,0.3,84.3,8.43,0.07
01:05:30,2.3680,0.2007,0.5066,0.1858,27.32,24.56,840.0,0.48,6.9,0.03,0.3,84.0,8.4,0.08
01:06:00,2.3620,0.2072,0.5106,0.1875,27.54,24.79,846.0,0.49,7.0,0.03,0.3,84.6,8.46,0.08
01:06:30,2.3570,0.2041,0.5146,0.1891,27.75,25.01,845.0,0.48,6.9,0.03,0.3,84.5,8.45,0.08
01:07:00,2.3580,0.1864,0.5184,0.1908,27.96,25.23,843.0,0.44,6.3,0.03,0.3,84.3,8.43,0.07
01:07:30,2.3540,0.1907,0.5222,0.1924,28.16,25.44,845.0,0.45,6.4,0.03,0.3,84.5,8.45,0.07
01:08:00,2.3620,0.1869,0.5260,0.1940,28.36,25.65,852.0,0.44,6.3,0.03,0.3,85.2,8.52,0.07
01:08:30,2.3540,0.1874,0.5299,0.1956,28.58,25.87,853.0,0.44,6.3,0.03,0.3,85.3,8.53,0.07
01:09:00,2.3530,0.2108,0.5337,0.1973,28.78,26.09,863.0,0.5,7.1,0.03,0.3,86.3,8.63,0.08
01:09:30,2.3470,0.1894,0.5375,0.1989,28.98,26.30,873.0,0.44,6.3,0.03,0.3,87.3,8.73,0.07
01:10:00,2.3560,0.1900,0.5412,0.2005,29.19,26.51,514.0,0.45,6.4,0.03,0.3,51.4,5.14,0.12
01:10:30,2.3460,0.1889,0.5449,0.2020,29.39,26.72,868.0,0.44,6.3,0.03,0.3,86.8,8.68,0.07
01:11:00,2.3490,0.1843,0.5488,0.2037,29.60,26.93,850.0,0.43,6.1,0.03,0.3,85.0,8.5,0.07
01:11:30,2.3520,0.1991,0.5525,0.2052,29.79,27.14,837.0,0.47,6.7,0.03,0.3,83.7,8.37,0.08
01:12:00,2.3430,0.1893,0.5560,0.2068,29.99,27.34,836.0,0.44,6.3,0.03,0.3,83.6,8.36,0.07
01:12:30,2.3460,0.1842,0.5598,0.2084,30.19,27.55,826.0,0.43,6.1,0.03,0.3,82.6,8.26,0.07
01:13:00,2.3390,0.1803,0.5634,0.2099,30.38,27.76,817.0,0.42,6.0,0.03,0.3,81.7,8.17,0.07
01:13:30,2.3400,0.1872,0.5670,0.2115,30.58,27.96,817.0,0.44,6.3,0.03,0.3,81.7,8.17,0.07
01:14:00,2.3470,0.1830,0.5706,0.2130,30.77,28.16,819.0,0.43,6.1,0.03,0.3,81.9,8.19,0.07
01:14:30,2.3420,0.1846,0.5742,0.2145,30.96,28.37,821.0,0.43,6.1,0.03,0.3,82.1,8.21,0.07
01:15:00,2.3440,0.1826,0.5778,0.2161,31.16,28.57,817.0,0.43,6.1,0.03,0.3,81.7,8.17,0.07
01:15:30,2.3420,0.1901,0.5815,0.2176,31.36,28.78,819.0,0.45,6.4,0.03,0.3,81.9,8.19,0.07
01:16:00,2.3450,0.1958,0.5853,0.2192,31.56,28.99,821.0,0.46,6.6,0.03,0.3,82.1,8.21,0.08
01:16:30,2.3470,0.1848,0.5889,0.2208,31.76,29.20,826.0,0.43,6.1,0.03,0.3,82.6,8.26,0.07
01:17:00,2.3520,0.1854,0.5927,0.2224,31.96,29.41,823.0,0.44,6.3,0.03,0.3,82.3,8.23,0.07
01:17:30,2.3560,0.2060,0.5966,0.2241,32.17,29.63,826.0,0.49,7.0,0.03,0.3,82.6,8.26,0.08
01:18:00,2.3500,0.1862,0.6004,0.2257,32.38,29.84,831.0,0.44,6.3,0.03,0.3,83.1,8.31,0.07
01:18:30,2.3490,0.1874,0.6042,0.2273,32.58,30.06,834.0,0.44,6.3,0.03,0.3,83.4,8.34,0.07
01:19:00,2.3580,0.1934,0.6080,0.2289,32.79,30.27,833.0,0.46,6.6,0.03,0.3,83.3,8.33,0.07
01:19:30,2.3620,0.2016,0.6118,0.2305,32.99,30.48,830.0,0.48,6.9,0.03,0.3,83.0,8.3,0.08
01:20:00,2.3610,0.2044,0.6157,0.2322,33.20,30.70,825.0,0.48,6.9,0.03,0.3,82.5,8.25,0.08
01:20:30,2.3580,0.1793,0.6193,0.2337,33.40,30.91,826.0,0.42,6.0,0.03,0.3,82.6,8.26,0.07
01:21:00,2.3460,0.1939,0.6231,0.2353,33.61,31.12,823.0,0.45,6.4,0.03,0.3,82.3,8.23,0.07
01:21:30,2.3430,0.2044,0.6270,0.2370,33.81,31.34,820.0,0.48,6.9,0.03,0.3,82.0,8.2,0.08
01:22:00,2.3560,0.1949,0.6308,0.2386,34.02,31.55,818.0,0.46,6.6,0.03,0.3,81.8,8.18,0.08
01:22:30,2.3550,0.1961,0.6344,0.2402,34.21,31.76,823.0,0.46,6.6,0.03,0.3,82.3,8.23,0.08
01:23:00,2.3420,0.1959,0.6384,0.2418,34.43,31.98,822.0,0.46,6.6,0.03,0.3,82.2,8.22,0.08
01:23:30,2.3510,0.1798,0.6421,0.2434,34.63,32.19,824.0,0.42,6.0,0.03,0.3,82.4,8.24,0.07
01:24:00,2.3500,0.1947,0.6458,0.2450,34.83,32.40,825.0,0.46,6.6,0.03,0.3,82.5,8.25,0.08
01:24:30,2.3500,0.1781,0.6495,0.2465,35.02,32.60,824.0,0.42,6.0,0.03,0.3,82.4,8.24,0.07
01:25:00,2.3500,0.1925,0.6531,0.2481,35.22,32.81,828.0,0.45,6.4,0.03,0.3,82.8,8.28,0.07
01:25:30,2.3460,0.1805,0.6569,0.2497,35.42,33.02,827.0,0.42,6.0,0.03,0.3,82.7,8.27,0.07
01:26:00,2.3430,0.1815,0.6605,0.2512,35.62,33.22,828.0,0.43,6.1,0.03,0.3,82.8,8.28,0.07
01:26:30,2.3430,0.1966,0.6643,0.2529,35.82,33.44,831.0,0.46,6.6,0.03,0.3,83.1,8.31,0.07
01:27:00,2.3410,0.1921,0.6681,0.2545,36.03,33.65,828.0,0.45,6.4,0.03,0.3,82.8,8.28,0.07
01:27:30,2.3440,0.1959,0.6719,0.2561,36.23,33.87,824.0,0.46,6.6,0.03,0.3,82.4,8.24,0.08
01:28:00,2.3440,0.1886,0.6756,0.2577,36.43,34.08,825.0,0.44,6.3,0.03,0.3,82.5,8.25,0.07
01:28:30,2.3490,0.1840,0.6792,0.2592,36.63,34.28,831.0,0.43,6.1,0.03,0.3,83.1,8.31,0.07
01:29:00,2.3420,0.1971,0.6828,0.2608,36.83,34.49,834.0,0.46,6.6,0.03,0.3,83.4,8.34,0.07
01:29:30,2.3450,0.1952,0.6865,0.2623,37.02,34.69,831.0,0.46,6.6,0.03,0.3,83.1,8.31,0.07
01:30:00,2.3480,0.2003,0.6902,0.2639,37.22,34.90,826.0,0.47,6.7,0.03,0.3,82.6,8.26,0.08
01:30:30,2.3470,0.1812,0.6940,0.2655,37.42,35.11,838.0,0.43,6.1,0.03,0.3,83.8,8.38,0.07
01:31:00,2.3410,0.1845,0.6976,0.2671,37.62,35.32,840.0,0.43,6.1,0.03,0.3,84.0,8.4,0.07
01:31:30,2.3490,0.1994,0.7015,0.2687,37.83,35.54,838.0,0.47,6.7,0.03,0.3,83.8,8.38,0.08
01:32:00,2.3400,0.1782,0.7051,0.2703,38.02,35.74,834.0,0.42,6.0,0.03,0.3,83.4,8.34,0.07
01:32:30,3.5220,0.4849,0.7123,0.2727,38.41,36.06,828.0,1.71,24.4,0.11,1.1,82.8,8.28,0.28
01:33:00,3.1470,0.4216,0.7242,0.2764,39.06,36.55,827.0,1.33,19.0,0.08,0.8,82.7,8.27,0.22
01:33:30,2.4040,0.2497,0.7307,0.2788,39.41,36.87,819.0,0.6,8.6,0.04,0.4,81.9,8.19,0.1
01:34:00,2.3450,0.1836,0.7344,0.2804,39.61,37.08,819.0,0.43,6.1,0.03,0.3,81.9,8.19,0.07
01:34:30,2.3270,0.1774,0.7380,0.2820,39.80,37.29,821.0,0.41,5.9,0.03,0.3,82.1,8.21,0.07
01:35:00,2.3330,0.1824,0.7415,0.2835,39.99,37.48,821.0,0.43,6.1,0.03,0.3,82.1,8.21,0.07
01:35:30,2.3320,0.1832,0.7450,0.2849,40.18,37.68,820.0,0.43,6.1,0.03,0.3,82.0,8.2,0.07
01:36:00,2.3410,0.1854,0.7487,0.2865,40.38,37.89,833.0,0.43,6.1,0.03,0.3,83.3,8.33,0.07
01:36:30,2.3350,0.2008,0.7524,0.2881,40.57,38.10,836.0,0.47,6.7,0.03,0.3,83.6,8.36,0.08
01:37:00,2.3490,0.2005,0.7562,0.2897,40.78,38.32,830.0,0.47,6.7,0.03,0.3,83.0,8.3,0.08
01:37:30,2.3410,0.1860,0.7598,0.2913,40.97,38.52,822.0,0.44,6.3,0.03,0.3,82.2,8.22,0.07
01:38:00,2.3300,0.1790,0.7633,0.2928,41.16,38.71,823.0,0.42,6.0,0.03,0.3,82.3,8.23,0.07
01:38:30,2.3320,0.1820,0.7668,0.2943,41.35,38.92,817.0,0.42,6.0,0.03,0.3,81.7,8.17,0.07
01:39:00,2.3320,0.1816,0.7703,0.2958,41.54,39.11,825.0,0.42,6.0,0.03,0.3,82.5,8.25,0.07
01:39:30,3.4310,0.4870,0.7775,0.2982,41.93,39.44,822.0,1.67,23.9,0.1,1.0,82.2,8.22,0.27
01:40:00,2.5830,0.3014,0.7837,0.3003,42.27,39.71,822.0,0.78,11.1,0.05,0.5,82.2,8.22,0.13
01:40:30,2.3450,0.1931,0.7882,0.3022,42.51,39.96,824.0,0.45,6.4,0.03,0.3,82.4,8.24,0.07
01:41:00,2.3380,0.2025,0.7919,0.3038,42.71,40.17,828.0,0.47,6.7,0.03,0.3,82.8,8.28,0.08
01:41:30,2.3280,0.1788,0.7954,0.3053,42.89,40.37,828.0,0.42,6.0,0.03,0.3,82.8,8.28,0.07
01:42:00,2.3450,0.2017,0.7990,0.3068,43.09,40.58,826.0,0.47,6.7,0.03,0.3,82.6,8.26,0.08
01:42:30,2.3280,0.1804,0.8025,0.3083,43.28,40.77,827.0,0.42,6.0,0.03,0.3,82.7,8.27,0.07
01:43:00,2.3300,0.1796,0.8061,0.3098,43.47,40.97,830.0,0.42,6.0,0.03,0.3,83.0,8.3,0.07
01:43:30,2.3470,0.1959,0.8098,0.3115,43.67,41.19,837.0,0.46,6.6,0.03,0.3,83.7,8.37,0.07
01:44:00,2.3360,0.1962,0.8135,0.3130,43.87,41.39,833.0,0.46,6.6,0.03,0.3,83.3,8.33,0.07
01:44:30,2.3310,0.1797,0.8170,0.3145,44.06,41.59,826.0,0.42,6.0,0.03,0.3,82.6,8.26,0.07
01:45:00,2.3340,0.1799,0.8206,0.3161,44.25,41.80,823.0,0.42,6.0,0.03,0.3,82.3,8.23,0.07
01:45:30,2.3390,0.1805,0.8242,0.3176,44.45,42.00,834.0,0.42,6.0,0.03,0.3,83.4,8.34,0.07
01:46:00,2.3360,0.1799,0.8278,0.3191,44.64,42.20,833.0,0.42,6.0,0.03,0.3,83.3,8.33,0.07
01:46:30,2.3380,0.2018,0.8316,0.3208,44.85,42.42,827.0,0.47,6.7,0.03,0.3,82.7,8.27,0.08
01:47:00,2.3350,0.1800,0.8351,0.3223,45.03,42.62,825.0,0.42,6.0,0.03,0.3,82.5,8.25,0.07
01:47:30,2.3340,0.1804,0.8386,0.3237,45.22,42.81,826.0,0.42,6.0,0.03,0.3,82.6,8.26,0.07
01:48:00,2.3470,0.1868,0.8423,0.3253,45.42,43.02,822.0,0.44,6.3,0.03,0.3,82.2,8.22,0.07
01:48:30,2.3340,0.1786,0.8459,0.3269,45.62,43.23,815.0,0.42,6.0,0.03,0.3,81.5,8.15,0.07
01:49:00,2.3370,0.1747,0.8495,0.3284,45.81,43.43,807.0,0.41,5.9,0.03,0.3,80.7,8.07,0.07
01:49:30,2.3320,0.1779,0.8529,0.3299,46.00,43.62,815.0,0.41,5.9,0.03,0.3,81.5,8.15,0.07
01:50:00,2.3320,0.1774,0.8565,0.3314,46.19,43.83,816.0,0.41,5.9,0.03,0.3,81.6,8.16,0.07
01:50:30,2.3380,0.1773,0.8599,0.3329,46.38,44.02,816.0,0.41,5.9,0.03,0.3,81.6,8.16,0.07
01:51:00,2.3400,0.1770,0.8635,0.3344,46.57,44.22,818.0,0.41,5.9,0.03,0.3,81.8,8.18,0.07
01:51:30,2.3360,0.1763,0.8670,0.3359,46.75,44.42,814.0,0.41,5.9,0.03,0.3,81.4,8.14,0.07
01:52:00,2.3320,0.1779,0.8704,0.3374,46.94,44.62,813.0,0.41,5.9,0.03,0.3,81.3,8.13,0.07
01:52:30,2.3320,0.1781,0.8739,0.3389,47.13,44.81,814.0,0.42,6.0,0.03,0.3,81.4,8.14,0.07
01:53:00,2.3330,0.1763,0.8775,0.3404,47.32,45.01,812.0,0.41,5.9,0.03,0.3,81.2,8.12,0.07
01:53:30,2.3330,0.1780,0.8810,0.3419,47.51,45.21,812.0,0.42,6.0,0.03,0.3,81.2,8.12,0.07
01:54:00,2.3340,0.1768,0.8845,0.3434,47.70,45.41,815.0,0.41,5.9,0.03,0.3,81.5,8.15,0.07
01:54:30,2.3370,0.1864,0.8881,0.3449,47.89,45.61,818.0,0.44,6.3,0.03,0.3,81.8,8.18,0.07
01:55:00,2.3390,0.1799,0.8916,0.3464,48.08,45.81,817.0,0.42,6.0,0.03,0.3,81.7,8.17,0.07
01:55:30,2.3380,0.1787,0.8952,0.3480,48.28,46.02,820.0,0.42,6.0,0.03,0.3,82.0,8.2,0.07
01:56:00,2.3440,0.1992,0.8988,0.3495,48.47,46.22,817.0,0.47,6.7,0.03,0.3,81.7,8.17,0.08
01:56:30,2.3320,0.1806,0.9024,0.3510,48.66,46.42,817.0,0.42,6.0,0.03,0.3,81.7,8.17,0.07
01:57:00,2.3430,0.1764,0.9060,0.3526,48.86,46.63,816.0,0.41,5.9,0.03,0.3,81.6,8.16,0.07
01:57:30,2.3300,0.1762,0.9094,0.3541,49.04,46.82,814.0,0.41,5.9,0.03,0.3,81.4,8.14,0.07
01:58:00,2.3330,0.1849,0.9129,0.3555,49.23,47.02,815.0,0.43,6.1,0.03,0.3,81.5,8.15,0.07
01:58:30,2.3160,0.1342,0.9154,0.3566,49.37,47.16,605.0,0.31,4.4,0.02,0.2,60.5,6.05,0.07
01:59:00,2.3200,0.1167,0.9173,0.3575,49.47,47.27,296.0,0.27,3.9,0.02,0.2,29.6,2.96,0.12
01:59:30,2.3400,0.1755,0.9208,0.3589,49.66,47.47,802.0,0.41,5.9,0.03,0.3,80.2,8.02,0.07
02:00:00,2.3340,0.1761,0.9242,0.3604,49.84,47.66,789.0,0.41,5.9,0.03,0.3,78.9,7.89,0.07
02:00:30,2.3350,0.1749,0.9276,0.3619,50.02,47.85,791.0,0.41,5.9,0.03,0.3,79.1,7.91,0.07
02:01:00,2.3370,0.1766,0.9311,0.3633,50.21,48.05,800.0,0.41,5.9,0.03,0.3,80.0,8.0,0.07
02:01:30,2.3180,0.1227,0.9341,0.3647,50.38,48.22,548.0,0.28,4.0,0.02,0.2,54.8,5.48,0.07
02:02:00,2.3390,0.1796,0.9362,0.3656,50.49,48.34,607.0,0.42,6.0,0.03,0.3,60.7,6.07,0.09
02:02:30,2.3430,0.2009,0.9399,0.3671,50.69,48.55,806.0,0.47,6.7,0.03,0.3,80.6,8.06,0.08
02:03:00,2.3380,0.1807,0.9434,0.3686,50.88,48.75,804.0,0.42,6.0,0.03,0.3,80.4,8.04,0.07
02:03:30,2.3380,0.1806,0.9470,0.3702,51.07,48.95,808.0,0.42,6.0,0.03,0.3,80.8,8.08,0.07
02:04:00,2.3390,0.1810,0.9505,0.3717,51.26,49.15,801.0,0.42,6.0,0.03,0.3,80.1,8.01,0.07
02:04:30,2.3360,0.1786,0.9541,0.3732,51.45,49.35,802.0,0.42,6.0,0.03,0.3,80.2,8.02,0.07
02:05:00,2.3500,0.1777,0.9578,0.3748,51.65,49.56,802.0,0.42,6.0,0.03,0.3,80.2,8.02,0.07
02:05:30,2.3350,0.1770,0.9614,0.3763,51.85,49.76,799.0,0.41,5.9,0.03,0.3,79.9,7.99,0.07
02:06:00,2.3410,0.1954,0.9652,0.3779,52.05,49.98,800.0,0.46,6.6,0.03,0.3,80.0,8.0,0.08
02:06:30,2.3320,0.1737,0.9687,0.3794,52.24,50.18,798.0,0.41,5.9,0.03,0.3,79.8,7.98,0.07
02:07:00,2.3360,0.1764,0.9722,0.3809,52.43,50.37,797.0,0.41,5.9,0.03,0.3,79.7,7.97,0.07
02:07:30,2.3340,0.1757,0.9757,0.3824,52.62,50.57,797.0,0.41,5.9,0.03,0.3,79.7,7.97,0.07
02:08:00,2.3350,0.1760,0.9792,0.3839,52.81,50.77,804.0,0.41,5.9,0.03,0.3,80.4,8.04,0.07
02:08:30,2.2990,0.0762,0.9819,0.3851,52.95,50.92,291.0,0.18,2.6,0.01,0.1,29.1,2.91,0.08
02:09:00,2.3420,0.1804,0.9838,0.3859,53.05,51.03,669.0,0.42,6.0,0.03,0.3,66.9,6.69,0.08
02:09:30,2.3440,0.1805,0.9873,0.3874,53.25,51.23,792.0,0.42,6.0,0.03,0.3,79.2,7.92,0.07
02:10:00,2.3610,0.1809,0.9908,0.3889,53.44,51.43,788.0,0.43,6.1,0.03,0.3,78.8,7.88,0.07
02:10:30,2.3410,0.1734,0.9944,0.3904,53.63,51.63,749.0,0.41,5.9,0.03,0.3,74.9,7.49,0.07
02:11:00,2.3550,0.1900,0.9980,0.3920,53.82,51.83,754.0,0.45,6.4,0.03,0.3,75.4,7.54,0.08
02:11:30,2.3470,0.1734,1.0014,0.3934,54.00,52.02,763.0,0.41,5.9,0.03,0.3,76.3,7.63,0.07
02:12:00,2.3500,0.1790,1.0050,0.3949,54.20,52.23,765.0,0.42,6.0,0.03,0.3,76.5,7.65,0.07
02:12:30,2.3450,0.1764,1.0086,0.3965,54.39,52.43,767.0,0.41,5.9,0.03,0.3,76.7,7.67,0.07
02:13:00,2.3440,0.1775,1.0120,0.3979,54.58,52.62,767.0,0.42,6.0,0.03,0.3,76.7,7.67,0.07
02:13:30,2.3420,0.1757,1.0155,0.3994,54.76,52.82,771.0,0.41,5.9,0.03,0.3,77.1,7.71,0.07
02:14:00,2.3410,0.1743,1.0189,0.4008,54.95,53.01,771.0,0.41,5.9,0.03,0.3,77.1,7.71,0.07
02:14:30,2.3410,0.1759,1.0224,0.4024,55.14,53.21,770.0,0.41,5.9,0.03,0.3,77.0,7.7,0.07
02:15:00,2.3550,0.1955,1.0260,0.4039,55.33,53.41,770.0,0.46,6.6,0.03,0.3,77.0,7.7,0.08
02:15:30,2.3420,0.1748,1.0294,0.4053,55.51,53.60,769.0,0.41,5.9,0.03,0.3,76.9,7.69,0.07
02:16:00,2.3500,0.1739,1.0329,0.4068,55.70,53.80,773.0,0.41,5.9,0.03,0.3,77.3,7.73,0.07
02:16:30,2.3390,0.1773,1.0365,0.4084,55.90,54.00,777.0,0.41,5.9,0.03,0.3,77.7,7.77,0.07
02:17:00,2.3510,0.1898,1.0400,0.4099,56.09,54.20,775.0,0.45,6.4,0.03,0.3,77.5,7.75,0.08
02:17:30,2.3390,0.1743,1.0436,0.4114,56.28,54.40,772.0,0.41,5.9,0.03,0.3,77.2,7.72,0.07
02:18:00,2.3390,0.1732,1.0470,0.4128,56.46,54.59,770.0,0.41,5.9,0.03,0.3,77.0,7.7,0.07
02:18:30,2.3530,0.1738,1.0504,0.4143,56.65,54.79,772.0,0.41,5.9,0.03,0.3,77.2,7.72,0.07
02:19:00,2.3480,0.1942,1.0539,0.4158,56.84,54.99,772.0,0.46,6.6,0.03,0.3,77.2,7.72,0.08
02:19:30,2.3360,0.1726,1.0573,0.4172,57.02,55.18,769.0,0.4,5.7,0.03,0.3,76.9,7.69,0.07
02:20:00,2.3440,0.1755,1.0609,0.4188,57.21,55.38,761.0,0.41,5.9,0.03,0.3,76.1,7.61,0.07
02:20:30,2.3340,0.1696,1.0642,0.4202,57.39,55.57,761.0,0.4,5.7,0.03,0.3,76.1,7.61,0.07
02:21:00,2.3360,0.1699,1.0675,0.4216,57.57,55.76,761.0,0.4,5.7,0.03,0.3,76.1,7.61,0.07
02:21:30,2.3340,0.1695,1.0709,0.4231,57.75,55.94,759.0,0.4,5.7,0.03,0.3,75.9,7.59,0.07
02:22:00,2.3400,0.1695,1.0742,0.4245,57.93,56.13,761.0,0.4,5.7,0.03,0.3,76.1,7.61,0.07
02:22:30,2.3520,0.1688,1.0775,0.4259,58.11,56.32,755.0,0.4,5.7,0.03,0.3,75.5,7.55,0.07
02:23:00,2.3430,0.1881,1.0809,0.4273,58.29,56.51,755.0,0.44,6.3,0.03,0.3,75.5,7.55,0.08
02:23:30,2.3380,0.1667,1.0842,0.4287,58.47,56.70,755.0,0.39,5.6,0.02,0.2,75.5,7.55,0.07
02:24:00,2.3340,0.1769,1.0875,0.4302,58.65,56.89,751.0,0.41,5.9,0.03,0.3,75.1,7.51,0.07
02:24:30,2.3480,0.1790,1.0911,0.4317,58.84,57.09,754.0,0.42,6.0,0.03,0.3,75.4,7.54,0.08
02:25:00,2.3340,0.1690,1.0944,0.4331,59.02,57.27,754.0,0.39,5.6,0.02,0.2,75.4,7.54,0.07
02:25:30,2.3430,0.1895,1.0978,0.4346,59.20,57.47,756.0,0.44,6.3,0.03,0.3,75.6,7.56,0.08
02:26:00,2.3330,0.1687,1.1011,0.4360,59.38,57.65,758.0,0.39,5.6,0.02,0.2,75.8,7.58,0.07
02:26:30,2.3320,0.1688,1.1044,0.4374,59.56,57.84,759.0,0.39,5.6,0.02,0.2,75.9,7.59,0.07
02:27:00,2.3320,0.1699,1.1077,0.4388,59.74,58.03,765.0,0.4,5.7,0.03,0.3,76.5,7.65,0.07
02:27:30,2.3350,0.1830,1.1111,0.4403,59.92,58.22,761.0,0.43,6.1,0.03,0.3,76.1,7.61,0.08
02:28:00,2.3360,0.1647,1.1144,0.4417,60.10,58.41,749.0,0.38,5.4,0.02,0.2,74.9,7.49,0.07
02:28:30,2.3310,0.1640,1.1177,0.4431,60.28,58.60,750.0,0.38,5.4,0.02,0.2,75.0,7.5,0.07
02:29:00,2.3290,0.1589,1.1209,0.4445,60.45,58.77,593.0,0.37,5.3,0.02,0.2,59.3,5.93,0.08
02:29:30,2.3310,0.1604,1.1238,0.4457,60.61,58.94,735.0,0.37,5.3,0.02,0.2,73.5,7.35,0.07
02:30:00,2.3310,0.1707,1.1270,0.4471,60.78,59.12,738.0,0.4,5.7,0.03,0.3,73.8,7.38,0.07
02:30:30,2.3420,0.1758,1.1304,0.4485,60.96,59.31,739.0,0.41,5.9,0.03,0.3,73.9,7.39,0.07
02:31:00,2.3470,0.1866,1.1337,0.4500,61.14,59.50,740.0,0.44,6.3,0.03,0.3,74.0,7.4,0.08
02:31:30,2.3320,0.1703,1.1370,0.4514,61.32,59.69,741.0,0.4,5.7,0.03,0.3,74.1,7.41,0.07
02:32:00,2.3390,0.1640,1.1402,0.4527,61.49,59.87,740.0,0.38,5.4,0.02,0.2,74.0,7.4,0.07
02:32:30,2.3380,0.1719,1.1436,0.4542,61.67,60.06,745.0,0.4,5.7,0.03,0.3,74.5,7.45,0.07
02:33:00,2.3450,0.1709,1.1470,0.4557,61.86,60.26,749.0,0.4,5.7,0.03,0.3,74.9,7.49,0.07
02:33:30,2.3370,0.1697,1.1504,0.4571,62.04,60.44,744.0,0.4,5.7,0.03,0.3,74.4,7.44,0.07
02:34:00,2.3570,0.1893,1.1540,0.4586,62.23,60.65,746.0,0.45,6.4,0.03,0.3,74.6,7.46,0.08
02:34:30,2.3450,0.1694,1.1573,0.4600,62.41,60.83,741.0,0.4,5.7,0.03,0.3,74.1,7.41,0.07
02:35:00,2.3350,0.1718,1.1607,0.4615,62.60,61.03,740.0,0.4,5.7,0.03,0.3,74.0,7.4,0.07
02:35:30,2.3370,0.1662,1.1640,0.4629,62.77,61.21,743.0,0.39,5.6,0.02,0.2,74.3,7.43,0.07
02:36:00,2.3380,0.1726,1.1674,0.4643,62.95,61.40,737.0,0.4,5.7,0.03,0.3,73.7,7.37,0.07
02:36:30,2.3340,0.1646,1.1707,0.4658,63.14,61.59,736.0,0.38,5.4,0.02,0.2,73.6,7.36,0.07
02:37:00,2.3350,0.1650,1.1739,0.4672,63.31,61.78,735.0,0.39,5.6,0.02,0.2,73.5,7.35,0.07
02:37:30,2.3390,0.1671,1.1772,0.4685,63.48,61.96,737.0,0.39,5.6,0.02,0.2,73.7,7.37,0.07
02:38:00,2.3310,0.1609,1.1804,0.4699,63.66,62.14,728.0,0.38,5.4,0.02,0.2,72.8,7.28,0.07
02:38:30,2.3370,0.1825,1.1838,0.4714,63.84,62.33,727.0,0.43,6.1,0.03,0.3,72.7,7.27,0.08
02:39:00,2.3300,0.1617,1.1869,0.4727,64.01,62.51,729.0,0.38,5.4,0.02,0.2,72.9,7.29,0.07
02:39:30,2.3310,0.1635,1.1901,0.4741,64.18,62.69,726.0,0.38,5.4,0.02,0.2,72.6,7.26,0.07
02:40:00,2.3390,0.1785,1.1934,0.4755,64.36,62.88,727.0,0.42,6.0,0.03,0.3,72.7,7.27,0.08
02:40:30,2.3320,0.1643,1.1966,0.4769,64.53,63.06,729.0,0.38,5.4,0.02,0.2,72.9,7.29,0.07
02:41:00,2.3310,0.1638,1.1998,0.4782,64.70,63.24,724.0,0.38,5.4,0.02,0.2,72.4,7.24,0.07
02:41:30,2.3330,0.1656,1.2030,0.4796,64.88,63.42,722.0,0.39,5.6,0.02,0.2,72.2,7.22,0.07
02:42:00,2.3330,0.1695,1.2065,0.4811,65.07,63.62,727.0,0.4,5.7,0.03,0.3,72.7,7.27,0.07
02:42:30,2.3400,0.1759,1.2099,0.4826,65.25,63.81,725.0,0.41,5.9,0.03,0.3,72.5,7.25,0.08
02:43:00,2.3320,0.1645,1.2132,0.4840,65.43,64.00,723.0,0.38,5.4,0.02,0.2,72.3,7.23,0.07
02:43:30,2.3330,0.1648,1.2165,0.4854,65.61,64.19,725.0,0.38,5.4,0.02,0.2,72.5,7.25,0.07
02:44:00,2.3470,0.1847,1.2199,0.4868,65.79,64.38,721.0,0.43,6.1,0.03,0.3,72.1,7.21,0.08
02:44:30,2.3460,0.1743,1.2232,0.4882,65.97,64.56,723.0,0.41,5.9,0.03,0.3,72.3,7.23,0.08
02:45:00,2.3340,0.1677,1.2264,0.4896,66.14,64.75,720.0,0.39,5.6,0.02,0.2,72.0,7.2,0.07
02:45:30,2.3390,0.1808,1.2297,0.4910,66.32,64.93,718.0,0.42,6.0,0.03,0.3,71.8,7.18,0.08
02:46:00,2.3330,0.1607,1.2329,0.4924,66.49,65.11,716.0,0.37,5.3,0.02,0.2,71.6,7.16,0.07
02:46:30,2.3340,0.1654,1.2361,0.4938,66.66,65.30,714.0,0.39,5.6,0.02,0.2,71.4,7.14,0.07
02:47:00,2.3340,0.1616,1.2393,0.4951,66.83,65.48,712.0,0.38,5.4,0.02,0.2,71.2,7.12,0.07
02:47:30,2.3330,0.1690,1.2426,0.4966,67.01,65.67,712.0,0.39,5.6,0.02,0.2,71.2,7.12,0.07
02:48:00,2.3410,0.1625,1.2458,0.4979,67.19,65.85,707.0,0.38,5.4,0.02,0.2,70.7,7.07,0.07
02:48:30,2.3390,0.1775,1.2492,0.4994,67.37,66.04,704.0,0.42,6.0,0.03,0.3,70.4,7.04,0.08
02:49:00,2.3390,0.1669,1.2524,0.5007,67.54,66.22,705.0,0.39,5.6,0.02,0.2,70.5,7.05,0.07
02:49:30,2.3370,0.1688,1.2559,0.5022,67.73,66.42,707.0,0.39,5.6,0.02,0.2,70.7,7.07,0.07
02:50:00,2.3410,0.1702,1.2593,0.5037,67.91,66.61,707.0,0.4,5.7,0.03,0.3,70.7,7.07,0.08
02:50:30,2.3350,0.1694,1.2626,0.5051,68.09,66.80,703.0,0.4,5.7,0.03,0.3,70.3,7.03,0.08
02:51:00,2.3380,0.1656,1.2659,0.5065,68.27,66.98,702.0,0.39,5.6,0.02,0.2,70.2,7.02,0.08
02:51:30,2.3450,0.1705,1.2692,0.5079,68.45,67.17,705.0,0.4,5.7,0.03,0.3,70.5,7.05,0.08
02:52:00,2.3370,0.1705,1.2726,0.5094,68.63,67.36,700.0,0.4,5.7,0.03,0.3,70.0,7.0,0.08
02:52:30,2.3430,0.1845,1.2759,0.5108,68.81,67.55,701.0,0.43,6.1,0.03,0.3,70.1,7.01,0.08
02:53:00,2.3390,0.1693,1.2792,0.5122,68.99,67.73,703.0,0.4,5.7,0.03,0.3,70.3,7.03,0.08
02:53:30,2.3550,0.1874,1.2826,0.5136,69.17,67.92,702.0,0.44,6.3,0.03,0.3,70.2,7.02,0.08
02:54:00,2.3360,0.1648,1.2859,0.5151,69.35,68.11,706.0,0.38,5.4,0.02,0.2,70.6,7.06,0.07
02:54:30,2.3410,0.1782,1.2893,0.5165,69.53,68.31,709.0,0.42,6.0,0.03,0.3,70.9,7.09,0.08
02:55:00,2.3350,0.1664,1.2927,0.5180,69.72,68.50,705.0,0.39,5.6,0.02,0.2,70.5,7.05,0.07
02:55:30,2.3390,0.1657,1.2963,0.5195,69.91,68.70,707.0,0.39,5.6,0.02,0.2,70.7,7.07,0.07
02:56:00,2.3360,0.1756,1.2996,0.5209,70.09,68.88,708.0,0.41,5.9,0.03,0.3,70.8,7.08,0.08
02:56:30,2.3410,0.1693,1.3029,0.5223,70.26,69.07,707.0,0.4,5.7,0.03,0.3,70.7,7.07,0.08
02:57:00,2.3410,0.1867,1.3065,0.5239,70.46,69.28,706.0,0.44,6.3,0.03,0.3,70.6,7.06,0.08
02:57:30,2.3370,0.1691,1.3099,0.5253,70.64,69.47,700.0,0.4,5.7,0.03,0.3,70.0,7.0,0.08
02:58:00,2.3420,0.1723,1.3133,0.5268,70.83,69.66,703.0,0.4,5.7,0.03,0.3,70.3,7.03,0.08
02:58:30,2.3370,0.1710,1.3167,0.5282,71.01,69.85,696.0,0.4,5.7,0.03,0.3,69.6,6.96,0.08
02:59:00,2.3510,0.1795,1.3200,0.5296,71.19,70.04,684.0,0.42,6.0,0.03,0.3,68.4,6.84,0.08
02:59:30,2.3410,0.1855,1.3234,0.5311,71.37,70.23,688.0,0.43,6.1,0.03,0.3,68.8,6.88,0.08
03:00:00,2.3400,0.1868,1.3270,0.5326,71.56,70.43,691.0,0.44,6.3,0.03,0.3,69.1,6.91,0.09
03:00:30,2.3450,0.1677,1.3303,0.5340,71.74,70.62,693.0,0.39,5.6,0.02,0.2,69.3,6.93,0.08
03:01:00,2.3430,0.1832,1.3337,0.5355,71.92,70.81,703.0,0.43,6.1,0.03,0.3,70.3,7.03,0.08
03:01:30,2.2970,0.0691,1.3357,0.5363,72.03,70.93,161.0,0.16,2.3,0.01,0.1,16.1,1.61,0.13
03:02:00,2.3040,0.0787,1.3370,0.5369,72.11,71.00,111.3,0.18,2.6,0.01,0.1,11.1,1.113,0.22
03:02:30,2.3450,0.1893,1.3403,0.5383,72.28,71.19,687.0,0.44,6.3,0.03,0.3,68.7,6.87,0.09
03:03:00,3.1890,0.4255,1.3443,0.5395,72.50,71.35,683.0,1.36,19.4,0.09,0.9,68.3,6.83,0.27
03:03:30,2.9920,0.3944,1.3541,0.5428,73.03,71.78,683.0,1.18,16.9,0.07,0.7,68.3,6.83,0.23
03:04:00,2.3730,0.2052,1.3596,0.5450,73.32,72.07,683.0,0.49,7.0,0.03,0.3,68.3,6.83,0.1
03:04:30,2.3280,0.1700,1.3630,0.5465,73.51,72.26,679.0,0.4,5.7,0.03,0.3,67.9,6.79,0.08
03:05:00,2.3270,0.1675,1.3663,0.5479,73.68,72.45,682.0,0.39,5.6,0.02,0.2,68.2,6.82,0.08
03:05:30,2.3290,0.1687,1.3696,0.5493,73.86,72.64,679.0,0.39,5.6,0.02,0.2,67.9,6.79,0.08
03:06:00,2.3290,0.1694,1.3730,0.5507,74.04,72.83,679.0,0.39,5.6,0.02,0.2,67.9,6.79,0.08
03:06:30,2.3280,0.1647,1.3763,0.5521,74.22,73.01,678.0,0.38,5.4,0.02,0.2,67.8,6.78,0.08
03:07:00,2.3300,0.1657,1.3796,0.5536,74.40,73.20,678.0,0.39,5.6,0.02,0.2,67.8,6.78,0.08
03:07:30,2.3380,0.1674,1.3828,0.5550,74.58,73.39,675.0,0.39,5.6,0.02,0.2,67.5,6.75,0.08
03:08:00,2.3290,0.1635,1.3861,0.5563,74.75,73.57,674.0,0.38,5.4,0.02,0.2,67.4,6.74,0.08
03:08:30,2.3320,0.1647,1.3894,0.5578,74.93,73.76,673.0,0.38,5.4,0.02,0.2,67.3,6.73,0.08
03:09:00,2.3290,0.1653,1.3927,0.5592,75.11,73.94,674.0,0.38,5.4,0.02,0.2,67.4,6.74,0.08
03:09:30,2.3450,0.1863,1.3962,0.5607,75.29,74.14,673.0,0.44,6.3,0.03,0.3,67.3,6.73,0.09
03:10:00,2.3290,0.1657,1.3995,0.5621,75.47,74.33,673.0,0.39,5.6,0.02,0.2,67.3,6.73,0.08
03:10:30,2.3320,0.1635,1.4028,0.5635,75.65,74.52,671.0,0.38,5.4,0.02,0.2,67.1,6.71,0.08
03:11:00,2.3310,0.1641,1.4061,0.5649,75.83,74.71,672.0,0.38,5.4,0.02,0.2,67.2,6.72,0.08
03:11:30,2.3390,0.1691,1.4094,0.5663,76.01,74.89,672.0,0.4,5.7,0.03,0.3,67.2,6.72,0.08
03:12:00,2.3350,0.1709,1.4129,0.5679,76.20,75.09,675.0,0.4,5.7,0.03,0.3,67.5,6.75,0.08
03:12:30,2.3350,0.1673,1.4163,0.5693,76.38,75.28,666.0,0.39,5.6,0.02,0.2,66.6,6.66,0.08
03:13:00,2.3230,0.1337,1.4191,0.5705,76.53,75.44,434.0,0.31,4.4,0.02,0.2,43.4,4.34,0.1
03:13:30,2.3470,0.1725,1.4225,0.5719,76.71,75.63,670.0,0.4,5.7,0.03,0.3,67.0,6.7,0.08
03:14:00,2.3450,0.1728,1.4259,0.5734,76.90,75.82,665.0,0.41,5.9,0.03,0.3,66.5,6.65,0.08
03:14:30,2.3300,0.1344,1.4289,0.5747,77.06,75.99,500.0,0.31,4.4,0.02,0.2,50.0,5.0,0.08
03:15:00,2.3340,0.1472,1.4320,0.5760,77.23,76.17,538.0,0.34,4.9,0.02,0.2,53.8,5.38,0.09
03:15:30,2.3000,0.0605,1.4333,0.5766,77.30,76.25,72.5,0.14,2.0,0.01,0.1,7.3,0.725,0.26
03:16:00,2.3090,0.0658,1.4346,0.5771,77.37,76.32,92.9,0.15,2.1,0.01,0.1,9.3,0.929,0.22
03:16:30,2.3400,0.0863,1.4365,0.5779,77.47,76.42,149.9,0.2,2.9,0.01,0.1,15.0,1.499,0.18
03:17:00,2.4230,0.2217,1.4421,0.5801,77.77,76.71,668.0,0.54,7.7,0.03,0.3,66.8,6.68,0.11
03:17:30,2.3410,0.1685,1.4457,0.5816,77.97,76.91,658.0,0.39,5.6,0.02,0.2,65.8,6.58,0.08
03:18:00,2.3390,0.1608,1.4490,0.5830,78.14,77.10,649.0,0.38,5.4,0.02,0.2,64.9,6.49,0.08
03:18:30,2.3470,0.1638,1.4522,0.5844,78.32,77.28,646.0,0.38,5.4,0.02,0.2,64.6,6.46,0.08
03:19:00,2.3470,0.1851,1.4558,0.5859,78.51,77.48,653.0,0.43,6.1,0.03,0.3,65.3,6.53,0.09
03:19:30,2.3410,0.1654,1.4591,0.5873,78.69,77.66,654.0,0.39,5.6,0.02,0.2,65.4,6.54,0.08
03:20:00,2.3410,0.1667,1.4622,0.5887,78.86,77.84,650.0,0.39,5.6,0.02,0.2,65.0,6.5,0.08
03:20:30,2.3410,0.1634,1.4655,0.5900,79.03,78.03,651.0,0.38,5.4,0.02,0.2,65.1,6.51,0.08
03:21:00,2.3420,0.1610,1.4687,0.5914,79.20,78.21,651.0,0.38,5.4,0.02,0.2,65.1,6.51,0.08
03:21:30,2.3420,0.1621,1.4719,0.5928,79.38,78.39,651.0,0.38,5.4,0.02,0.2,65.1,6.51,0.08
03:22:00,2.3420,0.1647,1.4752,0.5942,79.56,78.58,646.0,0.39,5.6,0.02,0.2,64.6,6.46,0.08
03:22:30,2.3460,0.1624,1.4784,0.5955,79.73,78.75,647.0,0.38,5.4,0.02,0.2,64.7,6.47,0.08
03:23:00,2.3520,0.1672,1.4816,0.5969,79.90,78.94,645.0,0.39,5.6,0.02,0.2,64.5,6.45,0.08
03:23:30,2.3430,0.1603,1.4848,0.5983,80.07,79.11,643.0,0.38,5.4,0.02,0.2,64.3,6.43,0.08
03:24:00,2.3580,0.1685,1.4881,0.5997,80.25,79.30,639.0,0.4,5.7,0.03,0.3,63.9,6.39,0.08
03:24:30,2.3450,0.1626,1.4913,0.6010,80.42,79.48,637.0,0.38,5.4,0.02,0.2,63.7,6.37,0.08
03:25:00,2.3490,0.1584,1.4944,0.6024,80.59,79.66,637.0,0.37,5.3,0.02,0.2,63.7,6.37,0.08
03:25:30,2.3570,0.1809,1.4978,0.6038,80.77,79.85,637.0,0.43,6.1,0.03,0.3,63.7,6.37,0.09
03:26:00,2.3450,0.1699,1.5011,0.6052,80.95,80.04,633.0,0.4,5.7,0.03,0.3,63.3,6.33,0.09
03:26:30,2.3440,0.1590,1.5042,0.6066,81.12,80.21,632.0,0.37,5.3,0.02,0.2,63.2,6.32,0.08
03:27:00,2.3450,0.1770,1.5075,0.6079,81.30,80.39,627.0,0.42,6.0,0.03,0.3,62.7,6.27,0.09
03:27:30,2.3430,0.1575,1.5106,0.6093,81.46,80.57,627.0,0.37,5.3,0.02,0.2,62.7,6.27,0.08
03:28:00,2.3420,0.1587,1.5137,0.6106,81.63,80.74,627.0,0.37,5.3,0.02,0.2,62.7,6.27,0.08
03:28:30,2.3450,0.1702,1.5169,0.6119,81.80,80.92,627.0,0.4,5.7,0.03,0.3,62.7,6.27,0.09
03:29:00,2.3430,0.1584,1.5201,0.6133,81.98,81.11,626.0,0.37,5.3,0.02,0.2,62.6,6.26,0.08
03:29:30,2.3430,0.1578,1.5232,0.6147,82.15,81.28,629.0,0.37,5.3,0.02,0.2,62.9,6.29,0.08
03:30:00,2.3520,0.1602,1.5265,0.6160,82.32,81.46,625.0,0.38,5.4,0.02,0.2,62.5,6.25,0.08
03:30:30,2.3420,0.1583,1.5296,0.6174,82.49,81.64,621.0,0.37,5.3,0.02,0.2,62.1,6.21,0.08
03:31:00,2.3400,0.1567,1.5329,0.6188,82.67,81.82,618.0,0.37,5.3,0.02,0.2,61.8,6.18,0.08
03:31:30,2.3400,0.1558,1.5360,0.6201,82.83,82.00,616.0,0.36,5.1,0.02,0.2,61.6,6.16,0.08
03:32:00,2.3420,0.1546,1.5390,0.6214,83.00,82.17,613.0,0.36,5.1,0.02,0.2,61.3,6.13,0.08
03:32:30,2.3410,0.1548,1.5420,0.6227,83.16,82.34,612.0,0.36,5.1,0.02,0.2,61.2,6.12,0.08
03:33:00,2.3350,0.1540,1.5451,0.6240,83.32,82.51,608.0,0.36,5.1,0.02,0.2,60.8,6.08,0.08
03:33:30,2.3380,0.1544,1.5482,0.6253,83.49,82.69,613.0,0.36,5.1,0.02,0.2,61.3,6.13,0.08
03:34:00,2.3340,0.1547,1.5512,0.6266,83.66,82.86,610.0,0.36,5.1,0.02,0.2,61.0,6.1,0.08
03:34:30,2.3380,0.1544,1.5543,0.6279,83.82,83.03,608.0,0.36,5.1,0.02,0.2,60.8,6.08,0.08
03:35:00,2.3360,0.1559,1.5574,0.6292,83.99,83.21,607.0,0.36,5.1,0.02,0.2,60.7,6.07,0.08
03:35:30,2.3350,0.1655,1.5605,0.6306,84.16,83.39,602.0,0.39,5.6,0.02,0.2,60.2,6.02,0.09
03:36:00,2.3340,0.1542,1.5635,0.6319,84.32,83.56,601.0,0.36,5.1,0.02,0.2,60.1,6.01,0.08
03:36:30,2.3430,0.1714,1.5668,0.6333,84.50,83.74,600.0,0.4,5.7,0.03,0.3,60.0,6.0,0.09
03:37:00,2.3340,0.1565,1.5699,0.6346,84.66,83.92,599.0,0.37,5.3,0.02,0.2,59.9,5.99,0.08
03:37:30,2.3340,0.1537,1.5730,0.6359,84.83,84.09,600.0,0.36,5.1,0.02,0.2,60.0,6.0,0.08
03:38:00,2.3340,0.1542,1.5762,0.6373,85.00,84.27,599.0,0.36,5.1,0.02,0.2,59.9,5.99,0.08
03:38:30,2.3360,0.1533,1.5793,0.6386,85.17,84.45,597.0,0.36,5.1,0.02,0.2,59.7,5.97,0.08
03:39:00,2.3360,0.1546,1.5823,0.6399,85.33,84.62,596.0,0.36,5.1,0.02,0.2,59.6,5.96,0.08
03:39:30,2.3450,0.1640,1.5854,0.6412,85.50,84.79,594.0,0.38,5.4,0.02,0.2,59.4,5.94,0.09
03:40:00,2.3370,0.1549,1.5885,0.6425,85.67,84.97,591.0,0.36,5.1,0.02,0.2,59.1,5.91,0.08
03:40:30,2.3470,0.1517,1.5915,0.6438,85.83,85.14,590.0,0.36,5.1,0.02,0.2,59.0,5.9,0.08
03:41:00,2.3410,0.1703,1.5946,0.6451,86.00,85.31,589.0,0.4,5.7,0.03,0.3,58.9,5.89,0.09
03:41:30,2.3380,0.1530,1.5977,0.6465,86.16,85.49,583.0,0.36,5.1,0.02,0.2,58.3,5.83,0.08
03:42:00,2.3370,0.1507,1.6007,0.6477,86.32,85.66,581.0,0.35,5.0,0.02,0.2,58.1,5.81,0.08
03:42:30,2.3390,0.1529,1.6036,0.6490,86.48,85.83,579.0,0.36,5.1,0.02,0.2,57.9,5.79,0.08
03:43:00,2.3390,0.1650,1.6068,0.6504,86.65,86.00,578.0,0.39,5.6,0.02,0.2,57.8,5.78,0.09
03:43:30,2.3380,0.1523,1.6098,0.6517,86.82,86.18,577.0,0.36,5.1,0.02,0.2,57.7,5.77,0.08
03:44:00,2.3380,0.1501,1.6128,0.6529,86.98,86.34,576.0,0.35,5.0,0.02,0.2,57.6,5.76,0.08
03:44:30,2.3360,0.1506,1.6157,0.6542,87.14,86.51,575.0,0.35,5.0,0.02,0.2,57.5,5.75,0.08
03:45:00,2.3410,0.1672,1.6188,0.6555,87.30,86.68,574.0,0.39,5.6,0.02,0.2,57.4,5.74,0.09
03:45:30,2.3370,0.1520,1.6217,0.6567,87.46,86.85,576.0,0.36,5.1,0.02,0.2,57.6,5.76,0.08
03:46:00,2.3340,0.1497,1.6247,0.6580,87.62,87.02,576.0,0.35,5.0,0.02,0.2,57.6,5.76,0.08
03:46:30,2.3540,0.1598,1.6277,0.6593,87.78,87.19,576.0,0.38,5.4,0.02,0.2,57.6,5.76,0.09
03:47:00,2.3390,0.1674,1.6308,0.6606,87.95,87.36,573.0,0.39,5.6,0.02,0.2,57.3,5.73,0.09
03:47:30,2.3360,0.1667,1.6339,0.6619,88.11,87.54,570.0,0.39,5.6,0.02,0.2,57.0,5.7,0.09
03:48:00,2.3330,0.1497,1.6368,0.6632,88.27,87.70,570.0,0.35,5.0,0.02,0.2,57.0,5.7,0.08
03:48:30,2.3340,0.1493,1.6397,0.6644,88.43,87.86,570.0,0.35,5.0,0.02,0.2,57.0,5.7,0.08
03:49:00,2.3360,0.1508,1.6426,0.6657,88.59,88.03,572.0,0.35,5.0,0.02,0.2,57.2,5.72,0.08
03:49:30,2.3360,0.1497,1.6457,0.6670,88.75,88.20,568.0,0.35,5.0,0.02,0.2,56.8,5.68,0.08
03:50:00,2.3380,0.1507,1.6487,0.6683,88.91,88.37,568.0,0.35,5.0,0.02,0.2,56.8,5.68,0.08
03:50:30,2.3350,0.1495,1.6517,0.6696,89.08,88.55,566.0,0.35,5.0,0.02,0.2,56.6,5.66,0.08
03:51:00,2.3350,0.1476,1.6547,0.6709,89.24,88.71,565.0,0.34,4.9,0.02,0.2,56.5,5.65,0.08
03:51:30,2.3440,0.1665,1.6577,0.6721,89.40,88.88,564.0,0.39,5.6,0.02,0.2,56.4,5.64,0.09
03:52:00,2.3360,0.1491,1.6607,0.6734,89.56,89.05,560.0,0.35,5.0,0.02,0.2,56.0,5.6,0.08
03:52:30,2.3460,0.1491,1.6637,0.6747,89.72,89.22,559.0,0.35,5.0,0.02,0.2,55.9,5.59,0.08
03:53:00,2.3380,0.1471,1.6666,0.6759,89.88,89.39,555.0,0.34,4.9,0.02,0.2,55.5,5.55,0.08
03:53:30,2.3460,0.1643,1.6697,0.6773,90.05,89.56,554.0,0.39,5.6,0.02,0.2,55.4,5.54,0.1
03:54:00,2.3420,0.1492,1.6726,0.6785,90.20,89.72,551.0,0.35,5.0,0.02,0.2,55.1,5.51,0.09
03:54:30,2.3390,0.1643,1.6756,0.6798,90.36,89.89,549.0,0.38,5.4,0.02,0.2,54.9,5.49,0.09
03:55:00,2.3430,0.1475,1.6786,0.6810,90.52,90.06,548.0,0.35,5.0,0.02,0.2,54.8,5.48,0.09
03:55:30,2.3450,0.1633,1.6815,0.6823,90.68,90.23,545.0,0.38,5.4,0.02,0.2,54.5,5.45,0.09
03:56:00,2.3350,0.1469,1.6846,0.6836,90.85,90.40,542.0,0.34,4.9,0.02,0.2,54.2,5.42,0.08
03:56:30,2.3450,0.1524,1.6875,0.6849,91.01,90.57,539.0,0.36,5.1,0.02,0.2,53.9,5.39,0.09
03:57:00,2.3400,0.1477,1.6904,0.6861,91.16,90.73,539.0,0.35,5.0,0.02,0.2,53.9,5.39,0.09
03:57:30,2.3360,0.1625,1.6933,0.6874,91.32,90.90,539.0,0.38,5.4,0.02,0.2,53.9,5.39,0.1
03:58:00,2.3320,0.1446,1.6962,0.6886,91.47,91.06,537.0,0.34,4.9,0.02,0.2,53.7,5.37,0.09
03:58:30,2.3460,0.1626,1.6992,0.6899,91.64,91.23,538.0,0.38,5.4,0.02,0.2,53.8,5.38,0.1
03:59:00,2.3390,0.1435,1.7021,0.6911,91.79,91.39,534.0,0.34,4.9,0.02,0.2,53.4,5.34,0.09
03:59:30,2.3510,0.1622,1.7051,0.6924,91.96,91.56,534.0,0.38,5.4,0.02,0.2,53.4,5.34,0.1
04:00:00,2.3350,0.1454,1.7079,0.6936,92.11,91.72,534.0,0.34,4.9,0.02,0.2,53.4,5.34,0.09
04:00:30,2.3320,0.1462,1.7108,0.6948,92.26,91.89,531.0,0.34,4.9,0.02,0.2,53.1,5.31,0.09
04:01:00,2.3520,0.1528,1.7137,0.6961,92.42,92.05,530.0,0.36,5.1,0.02,0.2,53.0,5.3,0.09
04:01:30,2.3330,0.1436,1.7165,0.6973,92.57,92.21,531.0,0.34,4.9,0.02,0.2,53.1,5.31,0.09
04:02:00,2.3320,0.1411,1.7194,0.6985,92.73,92.37,529.0,0.33,4.7,0.02,0.2,52.9,5.29,0.08
04:02:30,2.3320,0.1446,1.7222,0.6997,92.88,92.53,526.0,0.34,4.9,0.02,0.2,52.6,5.26,0.09
04:03:00,2.3460,0.1553,1.7250,0.7009,93.03,92.69,523.0,0.36,5.1,0.02,0.2,52.3,5.23,0.09
04:03:30,2.3360,0.1557,1.7279,0.7021,93.18,92.85,525.0,0.36,5.1,0.02,0.2,52.5,5.25,0.09
04:04:00,2.3410,0.1449,1.7308,0.7034,93.34,93.02,525.0,0.34,4.9,0.02,0.2,52.5,5.25,0.09
04:04:30,2.3380,0.1428,1.7336,0.7046,93.49,93.18,523.0,0.33,4.7,0.02,0.2,52.3,5.23,0.09
04:05:00,2.3480,0.1432,1.7364,0.7058,93.64,93.33,520.0,0.34,4.9,0.02,0.2,52.0,5.2,0.09
04:05:30,2.3330,0.1425,1.7393,0.7070,93.80,93.50,519.0,0.33,4.7,0.02,0.2,51.9,5.19,0.09
04:06:00,2.3330,0.1433,1.7421,0.7082,93.95,93.65,520.0,0.33,4.7,0.02,0.2,52.0,5.2,0.09
04:06:30,2.3340,0.1409,1.7450,0.7095,94.11,93.82,519.0,0.33,4.7,0.02,0.2,51.9,5.19,0.09
04:07:00,2.3540,0.1503,1.7479,0.7107,94.26,93.98,517.0,0.35,5.0,0.02,0.2,51.7,5.17,0.09
04:07:30,2.3350,0.1415,1.7507,0.7119,94.41,94.14,516.0,0.33,4.7,0.02,0.2,51.6,5.16,0.09
04:08:00,2.3390,0.1581,1.7538,0.7132,94.58,94.31,515.0,0.37,5.3,0.02,0.2,51.5,5.15,0.1
04:08:30,2.3360,0.1421,1.7566,0.7144,94.73,94.48,515.0,0.33,4.7,0.02,0.2,51.5,5.15,0.09
04:09:00,2.3350,0.1426,1.7595,0.7156,94.89,94.64,515.0,0.33,4.7,0.02,0.2,51.5,5.15,0.09
04:09:30,2.3370,0.1400,1.7623,0.7169,95.04,94.80,514.0,0.33,4.7,0.02,0.2,51.4,5.14,0.09
04:10:00,2.3390,0.1487,1.7652,0.7181,95.19,94.96,511.0,0.35,5.0,0.02,0.2,51.1,5.11,0.09
04:10:30,2.3360,0.1415,1.7679,0.7192,95.34,95.11,511.0,0.33,4.7,0.02,0.2,51.1,5.11,0.09
04:11:00,2.3350,0.1427,1.7707,0.7204,95.49,95.27,510.0,0.33,4.7,0.02,0.2,51.0,5.1,0.09
04:11:30,2.3450,0.1449,1.7735,0.7217,95.64,95.43,505.0,0.34,4.9,0.02,0.2,50.5,5.05,0.09
04:12:00,2.3470,0.1438,1.7763,0.7228,95.79,95.59,504.0,0.34,4.9,0.02,0.2,50.4,5.04,0.09
04:12:30,2.3340,0.1391,1.7790,0.7240,95.94,95.74,505.0,0.32,4.6,0.02,0.2,50.5,5.05,0.09
04:13:00,2.3360,0.1409,1.7819,0.7252,96.09,95.90,505.0,0.33,4.7,0.02,0.2,50.5,5.05,0.09
04:13:30,2.3340,0.1419,1.7847,0.7264,96.25,96.06,503.0,0.33,4.7,0.02,0.2,50.3,5.03,0.09
04:14:00,2.3390,0.1350,1.7875,0.7276,96.40,96.22,502.0,0.32,4.6,0.02,0.2,50.2,5.02,0.09
04:14:30,2.3340,0.1392,1.7903,0.7288,96.55,96.38,502.0,0.32,4.6,0.02,0.2,50.2,5.02,0.09
04:15:00,2.3330,0.1425,1.7932,0.7301,96.70,96.54,500.0,0.33,4.7,0.02,0.2,50.0,5.0,0.09
04:15:30,2.3330,0.1336,1.7959,0.7312,96.85,96.69,498.0,0.31,4.4,0.02,0.2,49.8,4.98,0.08
04:16:00,2.3370,0.1365,1.7985,0.7323,96.99,96.84,495.0,0.32,4.6,0.02,0.2,49.5,4.95,0.09
04:16:30,2.3320,0.1345,1.8012,0.7335,97.14,97.00,496.0,0.31,4.4,0.02,0.2,49.6,4.96,0.08
04:17:00,2.3340,0.1407,1.8039,0.7347,97.28,97.15,494.0,0.33,4.7,0.02,0.2,49.4,4.94,0.09
04:17:30,2.3450,0.1552,1.8068,0.7359,97.44,97.31,493.0,0.36,5.1,0.02,0.2,49.3,4.93,0.1
04:18:00,2.3320,0.1395,1.8096,0.7371,97.59,97.47,494.0,0.33,4.7,0.02,0.2,49.4,4.94,0.09
04:18:30,2.3470,0.1401,1.8124,0.7383,97.74,97.63,496.0,0.33,4.7,0.02,0.2,49.6,4.96,0.09
04:19:00,2.3390,0.1340,1.8153,0.7395,97.90,97.79,495.0,0.31,4.4,0.02,0.2,49.5,4.95,0.08
04:19:30,2.3420,0.1416,1.8181,0.7407,98.05,97.95,491.0,0.33,4.7,0.02,0.2,49.1,4.91,0.09
04:20:00,2.3410,0.1374,1.8208,0.7419,98.20,98.11,491.0,0.32,4.6,0.02,0.2,49.1,4.91,0.09
04:20:30,2.3380,0.1537,1.8237,0.7431,98.35,98.27,490.0,0.36,5.1,0.02,0.2,49.0,4.9,0.1
04:21:00,2.3330,0.1397,1.8265,0.7443,98.50,98.43,490.0,0.33,4.7,0.02,0.2,49.0,4.9,0.09
04:21:30,2.3490,0.1460,1.8293,0.7455,98.65,98.59,490.0,0.34,4.9,0.02,0.2,49.0,4.9,0.09
04:22:00,2.3350,0.1381,1.8321,0.7467,98.80,98.74,486.0,0.32,4.6,0.02,0.2,48.6,4.86,0.09
04:22:30,2.3360,0.1378,1.8348,0.7478,98.95,98.90,484.0,0.32,4.6,0.02,0.2,48.4,4.84,0.09
04:23:00,2.3330,0.1389,1.8374,0.7490,99.09,99.05,481.0,0.32,4.6,0.02,0.2,48.1,4.81,0.09
04:23:30,2.3370,0.1377,1.8401,0.7501,99.23,99.20,479.0,0.32,4.6,0.02,0.2,47.9,4.79,0.09
04:24:00,2.3370,0.1306,1.8427,0.7512,99.37,99.34,474.0,0.31,4.4,0.02,0.2,47.4,4.74,0.09
04:24:30,2.3390,0.1521,1.8454,0.7524,99.52,99.50,470.0,0.36,5.1,0.02,0.2,47.0,4.7,0.1
04:25:00,2.3390,0.1495,1.8482,0.7536,99.67,99.65,470.0,0.35,5.0,0.02,0.2,47.0,4.7,0.1
04:25:30,2.3340,0.1344,1.8508,0.7547,99.81,99.80,467.0,0.31,4.4,0.02,0.2,46.7,4.67,0.09
04:26:00,2.3320,0.1343,1.8534,0.7558,99.95,99.95,463.0,0.31,4.4,0.02,0.2,46.3,4.63,0.09
04:26:20,2.3520,0.1502,1.8553,0.7566,100.05,100.06,474.0,0.35,5.0,0.02,0.2,47.4,4.74,0.1