File: output/5/gznomad14-1.csv
Time,Voltage(V),Current(A),Energy(Wh),Capacity(Ah),Energy Proportion(%),Capacity Proportion(%),Irradiance(W/m2),Power(W),Power Score,Watts/oz,cW/oz,Sun Score,Irradiance/100,Efficiency(%)
00:00:00,5.2230,0.0092,0.0001,0.0000,0.00,0.00,804.0,0.05,0.4,0.0,0.0,80.4,8.04,0.01
00:00:30,4.7790,1.6471,0.0240,0.0050,0.78,0.45,805.0,7.87,65.6,0.27,2.7,80.5,8.05,0.79
00:01:00,5.2220,0.0091,0.0281,0.0058,0.91,0.52,797.0,0.05,0.4,0.0,0.0,79.7,7.97,0.01
00:01:30,5.2080,0.0389,0.0326,0.0067,1.06,0.60,798.0,0.2,1.7,0.01,0.1,79.8,7.98,0.02
00:02:00,5.1260,0.0091,0.0525,0.0108,1.70,0.97,787.0,0.05,0.4,0.0,0.0,78.7,7.87,0.01
00:02:30,4.8220,1.3324,0.0706,0.0145,2.28,1.31,782.0,6.42,53.5,0.22,2.2,78.2,7.82,0.66
00:03:00,5.1580,0.0091,0.0795,0.0163,2.57,1.46,776.0,0.05,0.4,0.0,0.0,77.6,7.76,0.01
00:03:30,5.2230,0.0091,0.0972,0.0199,3.15,1.79,780.0,0.05,0.4,0.0,0.0,78.0,7.8,0.01
00:04:00,5.2230,0.0092,0.0995,0.0204,3.22,1.83,777.0,0.05,0.4,0.0,0.0,77.7,7.77,0.01
00:04:30,4.8880,0.8616,0.1290,0.0264,4.18,2.37,772.0,4.21,35.1,0.15,1.5,77.2,7.72,0.44
00:05:00,2.8140,0.8409,0.1506,0.0338,4.88,3.03,763.0,2.37,19.8,0.08,0.8,76.3,7.63,0.25
00:05:30,2.8970,0.8879,0.1707,0.0409,5.52,3.67,766.0,2.57,21.4,0.09,0.9,76.6,7.66,0.27
00:06:00,4.7770,1.3301,0.1900,0.0449,6.15,4.03,767.0,6.35,52.9,0.22,2.2,76.7,7.67,0.67
00:06:30,5.2090,0.0621,0.2005,0.0480,6.49,4.30,772.0,0.32,2.7,0.01,0.1,77.2,7.72,0.03
00:07:00,5.1680,0.0092,0.2164,0.0512,7.01,4.59,770.0,0.05,0.4,0.0,0.0,77.0,7.7,0.01
00:07:30,4.9630,0.9649,0.2402,0.0568,7.78,5.10,768.0,4.79,39.9,0.17,1.7,76.8,7.68,0.5
00:08:00,5.1600,0.1964,0.2529,0.0593,8.19,5.33,770.0,1.01,8.4,0.04,0.4,77.0,7.7,0.11
00:08:30,5.2230,0.0092,0.2615,0.0611,8.46,5.48,766.0,0.05,0.4,0.0,0.0,76.6,7.66,0.01
00:09:00,5.1070,0.0091,0.2695,0.0627,8.72,5.63,772.0,0.05,0.4,0.0,0.0,77.2,7.72,0.01
00:09:30,5.1040,0.0831,0.2877,0.0665,9.31,5.97,765.0,0.42,3.5,0.01,0.1,76.5,7.65,0.04
00:10:00,4.7930,1.2259,0.3043,0.0700,9.85,6.28,783.0,5.88,49.0,0.2,2.0,78.3,7.83,0.61
00:10:30,5.2230,0.0092,0.3047,0.0700,9.86,6.29,794.0,0.05,0.4,0.0,0.0,79.4,7.94,0.01
00:11:00,4.8480,0.8178,0.3272,0.0747,10.59,6.70,796.0,3.96,33.0,0.14,1.4,79.6,7.96,0.4
00:11:30,5.2160,0.0091,0.3293,0.0751,10.66,6.74,802.0,0.05,0.4,0.0,0.0,80.2,8.02,0.01
00:12:00,5.1180,0.3525,0.3410,0.0783,11.04,7.03,688.0,1.8,15.0,0.06,0.6,68.8,6.88,0.21
00:12:30,2.8110,0.8152,0.3619,0.0853,11.72,7.66,674.0,2.29,19.1,0.08,0.8,67.4,6.74,0.27
00:13:00,2.2850,0.1988,0.3703,0.0887,11.99,7.96,336.0,0.45,3.8,0.02,0.2,33.6,3.36,0.11
00:13:30,2.4440,0.5492,0.3770,0.0915,12.20,8.21,285.0,1.34,11.2,0.05,0.5,28.5,2.85,0.38
00:14:00,2.5860,0.7349,0.3862,0.0952,12.50,8.55,381.0,1.9,15.8,0.07,0.7,38.1,3.81,0.4
00:14:30,2.7930,0.8807,0.4026,0.1014,13.03,9.10,781.0,2.46,20.5,0.09,0.9,78.1,7.81,0.25
00:15:00,2.8550,0.8531,0.4150,0.1059,13.43,9.50,758.0,2.44,20.3,0.08,0.8,75.8,7.58,0.26
00:15:30,3.1630,0.9628,0.4278,0.1102,13.85,9.89,576.0,3.05,25.4,0.11,1.1,57.6,5.76,0.43
00:16:00,2.2520,0.2214,0.4336,0.1127,14.04,10.12,212.0,0.5,4.2,0.02,0.2,21.2,2.12,0.19
00:16:30,2.2490,0.2141,0.4375,0.1145,14.16,10.27,176.6,0.48,4.0,0.02,0.2,17.7,1.766,0.22
00:17:00,2.3080,0.3336,0.4429,0.1168,14.34,10.48,248.0,0.77,6.4,0.03,0.3,24.8,2.48,0.25
00:17:30,2.2990,0.3065,0.4526,0.1208,14.65,10.84,700.0,0.7,5.8,0.02,0.2,70.0,7.0,0.08
00:18:00,2.2740,0.1995,0.4602,0.1235,14.90,11.09,246.0,0.45,3.8,0.02,0.2,24.6,2.46,0.15
00:18:30,2.2530,0.1968,0.4640,0.1252,15.02,11.24,154.3,0.44,3.7,0.02,0.2,15.4,1.543,0.23
00:19:00,2.2490,0.1868,0.4676,0.1268,15.14,11.38,161.5,0.42,3.5,0.01,0.1,16.2,1.615,0.21
00:19:30,2.2520,0.1858,0.4712,0.1284,15.25,11.53,147.1,0.42,3.5,0.01,0.1,14.7,1.471,0.23
00:20:00,2.2550,0.1866,0.4747,0.1300,15.37,11.67,145.9,0.42,3.5,0.01,0.1,14.6,1.459,0.23
00:20:30,2.2570,0.1843,0.4783,0.1316,15.49,11.81,144.0,0.42,3.5,0.01,0.1,14.4,1.44,0.24
00:21:00,2.2630,0.2007,0.4820,0.1332,15.60,11.95,137.9,0.45,3.8,0.02,0.2,13.8,1.379,0.26
00:21:30,2.2810,0.2005,0.4855,0.1347,15.72,12.09,134.7,0.46,3.8,0.02,0.2,13.5,1.347,0.28
00:22:00,2.2820,0.2031,0.4890,0.1363,15.83,12.23,135.4,0.46,3.8,0.02,0.2,13.5,1.354,0.27
00:22:30,2.2700,0.1818,0.4926,0.1379,15.95,12.37,137.2,0.41,3.4,0.01,0.1,13.7,1.372,0.24
00:23:00,2.2770,0.1882,0.4963,0.1395,16.07,12.52,147.5,0.43,3.6,0.01,0.1,14.8,1.475,0.24
00:23:30,2.2810,0.2217,0.5002,0.1412,16.19,12.67,164.1,0.51,4.3,0.02,0.2,16.4,1.641,0.25
00:24:00,2.2930,0.2556,0.5046,0.1431,16.33,12.84,218.0,0.59,4.9,0.02,0.2,21.8,2.18,0.22
00:24:30,5.2210,0.0092,0.5085,0.1448,16.46,12.99,382.0,0.05,0.4,0.0,0.0,38.2,3.82,0.01
00:25:00,2.3570,0.3261,0.5189,0.1483,16.80,13.32,681.0,0.77,6.4,0.03,0.3,68.1,6.81,0.09
00:25:30,2.6410,0.7575,0.5318,0.1534,17.22,13.77,597.0,2.0,16.7,0.07,0.7,59.7,5.97,0.27
00:26:00,2.7150,0.8001,0.5498,0.1601,17.80,14.37,757.0,2.17,18.1,0.08,0.8,75.7,7.57,0.23
00:26:30,3.3540,1.0216,0.5749,0.1680,18.61,15.08,753.0,3.43,28.6,0.12,1.2,75.3,7.53,0.37
00:27:00,4.6260,0.0092,0.5861,0.1706,18.97,15.31,747.0,0.04,0.3,0.0,0.0,74.7,7.47,0.0
00:27:30,3.3420,1.0512,0.6054,0.1764,19.60,15.83,745.0,3.51,29.3,0.12,1.2,74.5,7.45,0.38
00:28:00,4.6790,0.0092,0.6220,0.1817,20.14,16.31,751.0,0.04,0.3,0.0,0.0,75.1,7.51,0.0
00:28:30,3.4460,1.1055,0.6328,0.1848,20.49,16.59,754.0,3.81,31.8,0.13,1.3,75.4,7.54,0.41
00:29:00,4.2630,0.8235,0.6650,0.1930,21.53,17.32,754.0,3.51,29.3,0.12,1.2,75.4,7.54,0.38
00:29:30,4.0800,0.9319,0.6845,0.1984,22.16,17.81,759.0,3.8,31.7,0.13,1.3,75.9,7.59,0.4
00:30:00,4.6660,0.0092,0.6934,0.2011,22.45,18.05,765.0,0.04,0.3,0.0,0.0,76.5,7.65,0.0
00:30:30,3.2730,1.0259,0.7199,0.2094,23.30,18.80,773.0,3.36,28.0,0.12,1.2,77.3,7.73,0.35
00:31:00,4.6030,0.0092,0.7207,0.2096,23.33,18.81,753.0,0.04,0.3,0.0,0.0,75.3,7.53,0.0
00:31:30,2.3690,0.3959,0.7235,0.2107,23.42,18.92,755.0,0.94,7.8,0.03,0.3,75.5,7.55,0.1
00:32:00,4.6110,0.0091,0.7363,0.2152,23.83,19.31,755.0,0.04,0.3,0.0,0.0,75.5,7.55,0.0
00:32:30,2.3010,0.3183,0.7441,0.2180,24.09,19.56,500.0,0.73,6.1,0.03,0.3,50.0,5.0,0.12
00:33:00,2.2260,0.1848,0.7475,0.2195,24.20,19.70,154.1,0.41,3.4,0.01,0.1,15.4,1.541,0.21
00:33:30,2.2400,0.1893,0.7511,0.2211,24.31,19.85,152.1,0.42,3.5,0.01,0.1,15.2,1.521,0.22
00:34:00,2.9470,0.2392,0.7555,0.2225,24.46,19.97,157.4,0.7,5.8,0.02,0.2,15.7,1.574,0.36
00:34:30,2.3650,0.1956,0.7599,0.2243,24.60,20.14,153.1,0.46,3.8,0.02,0.2,15.3,1.531,0.24
00:35:00,2.2890,0.1831,0.7635,0.2259,24.72,20.27,142.9,0.42,3.5,0.01,0.1,14.3,1.429,0.24
00:35:30,2.2620,0.1781,0.7670,0.2274,24.83,20.41,143.5,0.4,3.3,0.01,0.1,14.4,1.435,0.22
00:36:00,2.2650,0.1987,0.7705,0.2290,24.94,20.55,140.1,0.45,3.8,0.02,0.2,14.0,1.401,0.26
00:36:30,2.2680,0.1798,0.7739,0.2304,25.05,20.68,137.8,0.41,3.4,0.01,0.1,13.8,1.378,0.24
00:37:00,2.2600,0.1791,0.7774,0.2320,25.17,20.82,141.2,0.4,3.3,0.01,0.1,14.1,1.412,0.23
00:37:30,2.2790,0.1788,0.7809,0.2336,25.28,20.96,141.9,0.41,3.4,0.01,0.1,14.2,1.419,0.23
00:38:00,2.2680,0.1763,0.7844,0.2351,25.39,21.10,145.6,0.4,3.3,0.01,0.1,14.6,1.456,0.22
00:38:30,2.2680,0.1761,0.7878,0.2366,25.50,21.23,138.7,0.4,3.3,0.01,0.1,13.9,1.387,0.23
00:39:00,2.2740,0.1865,0.7913,0.2381,25.62,21.38,140.8,0.42,3.5,0.01,0.1,14.1,1.408,0.24
00:39:30,2.2790,0.1781,0.7947,0.2396,25.73,21.51,139.9,0.41,3.4,0.01,0.1,14.0,1.399,0.24
00:40:00,2.2870,0.1811,0.7982,0.2412,25.84,21.65,142.0,0.41,3.4,0.01,0.1,14.2,1.42,0.23
00:40:30,2.2770,0.1768,0.8016,0.2427,25.95,21.78,142.4,0.4,3.3,0.01,0.1,14.2,1.424,0.23
00:41:00,2.2830,0.2033,0.8052,0.2442,26.07,21.92,140.6,0.46,3.8,0.02,0.2,14.1,1.406,0.26
00:41:30,2.2810,0.1841,0.8087,0.2458,26.18,22.06,140.1,0.42,3.5,0.01,0.1,14.0,1.401,0.24
00:42:00,2.2950,0.1935,0.8124,0.2474,26.30,22.20,147.5,0.44,3.7,0.02,0.2,14.8,1.475,0.24
00:42:30,2.2900,0.1922,0.8161,0.2490,26.42,22.35,162.1,0.44,3.7,0.02,0.2,16.2,1.621,0.22
00:43:00,2.3050,0.1955,0.8198,0.2506,26.54,22.49,153.7,0.45,3.8,0.02,0.2,15.4,1.537,0.24
00:43:30,2.2960,0.2052,0.8237,0.2523,26.66,22.65,160.2,0.47,3.9,0.02,0.2,16.0,1.602,0.24
00:44:00,2.3810,0.4053,0.8299,0.2549,26.87,22.88,350.0,0.97,8.1,0.03,0.3,35.0,3.5,0.22
00:44:30,2.4810,0.6098,0.8421,0.2599,27.26,23.33,708.0,1.51,12.6,0.05,0.5,70.8,7.08,0.17
00:45:00,2.5180,0.6748,0.8544,0.2649,27.66,23.77,638.0,1.7,14.2,0.06,0.6,63.8,6.38,0.21
00:45:30,2.6690,0.7530,0.8696,0.2708,28.15,24.31,686.0,2.01,16.8,0.07,0.7,68.6,6.86,0.24
00:46:00,4.6040,0.3495,0.8816,0.2742,28.54,24.61,686.0,1.61,13.4,0.06,0.6,68.6,6.86,0.19
00:46:30,4.5830,0.0847,0.8829,0.2745,28.58,24.64,667.0,0.39,3.3,0.01,0.1,66.7,6.67,0.05
00:47:00,4.6030,0.0092,0.8903,0.2769,28.82,24.85,661.0,0.04,0.3,0.0,0.0,66.1,6.61,0.0
00:47:30,3.0050,0.8109,0.9135,0.2844,29.57,25.52,650.0,2.44,20.3,0.08,0.8,65.0,6.5,0.3
00:48:00,2.9510,0.8122,0.9294,0.2888,30.09,25.93,643.0,2.4,20.0,0.08,0.8,64.3,6.43,0.3
00:48:30,2.6220,0.6680,0.9467,0.2950,30.65,26.48,623.0,1.75,14.6,0.06,0.6,62.3,6.23,0.23
00:49:00,2.5400,0.6279,0.9606,0.3005,31.10,26.97,626.0,1.59,13.3,0.06,0.6,62.6,6.26,0.2
00:49:30,2.8880,0.7552,0.9770,0.3065,31.63,27.51,624.0,2.18,18.2,0.08,0.8,62.4,6.24,0.28
00:50:00,5.0430,0.0559,0.9780,0.3067,31.66,27.53,650.0,0.28,2.3,0.01,0.1,65.0,6.5,0.03
00:50:30,4.6030,0.0092,0.9787,0.3068,31.68,27.54,666.0,0.04,0.3,0.0,0.0,66.6,6.66,0.0
00:51:00,4.5890,0.0692,0.9902,0.3095,32.06,27.78,649.0,0.32,2.7,0.01,0.1,64.9,6.49,0.04
00:51:30,4.7360,0.5172,0.9973,0.3109,32.28,27.91,633.0,2.45,20.4,0.09,0.9,63.3,6.33,0.31
00:52:00,4.8030,0.0091,1.0241,0.3174,33.15,28.49,646.0,0.04,0.3,0.0,0.0,64.6,6.46,0.0
00:52:30,2.8990,0.7555,1.0366,0.3217,33.56,28.87,644.0,2.19,18.3,0.08,0.8,64.4,6.44,0.27
00:53:00,4.9220,0.0092,1.0588,0.3267,34.28,29.32,652.0,0.05,0.4,0.0,0.0,65.2,6.52,0.01
00:53:30,3.1340,0.7720,1.0785,0.3316,34.92,29.76,652.0,2.42,20.2,0.08,0.8,65.2,6.52,0.3
00:54:00,4.9330,0.0092,1.0974,0.3363,35.52,30.19,657.0,0.05,0.4,0.0,0.0,65.7,6.57,0.01
00:54:30,4.8780,0.2690,1.1086,0.3394,35.89,30.47,660.0,1.31,10.9,0.05,0.5,66.0,6.6,0.16
00:55:00,3.3760,0.9180,1.1174,0.3420,36.17,30.70,659.0,3.1,25.8,0.11,1.1,65.9,6.59,0.38
00:55:30,4.9710,0.0092,1.1226,0.3431,36.34,30.80,661.0,0.05,0.4,0.0,0.0,66.1,6.61,0.01
00:56:00,3.3700,0.8881,1.1312,0.3456,36.62,31.02,646.0,2.99,24.9,0.1,1.0,64.6,6.46,0.37
00:56:30,3.0300,0.7988,1.1382,0.3479,36.85,31.23,617.0,2.42,20.2,0.08,0.8,61.7,6.17,0.32
00:57:00,2.4600,0.5054,1.1506,0.3527,37.25,31.66,552.0,1.24,10.3,0.04,0.4,55.2,5.52,0.18
00:57:30,2.3510,0.4209,1.1594,0.3564,37.53,31.99,511.0,0.99,8.3,0.03,0.3,51.1,5.11,0.16
00:58:00,2.4560,0.6151,1.1711,0.3612,37.91,32.42,644.0,1.51,12.6,0.05,0.5,64.4,6.44,0.19
00:58:30,2.4160,0.5570,1.1826,0.3659,38.28,32.84,626.0,1.35,11.3,0.05,0.5,62.6,6.26,0.17
00:59:00,2.5040,0.6619,1.1957,0.3712,38.71,33.32,670.0,1.66,13.8,0.06,0.6,67.0,6.7,0.2
00:59:30,4.6800,0.0091,1.2080,0.3756,39.11,33.71,675.0,0.04,0.3,0.0,0.0,67.5,6.75,0.0
01:00:00,4.6790,0.0092,1.2096,0.3759,39.16,33.74,679.0,0.04,0.3,0.0,0.0,67.9,6.79,0.0
01:00:30,2.4330,0.5307,1.2246,0.3814,39.64,34.23,598.0,1.29,10.8,0.04,0.4,59.8,5.98,0.17
01:01:00,2.6520,0.7067,1.2376,0.3865,40.06,34.69,553.0,1.87,15.6,0.06,0.6,55.3,5.53,0.27
01:01:30,4.6790,0.0092,1.2449,0.3890,40.30,34.91,663.0,0.04,0.3,0.0,0.0,66.3,6.63,0.0
01:02:00,5.2130,0.0092,1.2468,0.3894,40.36,34.95,677.0,0.05,0.4,0.0,0.0,67.7,6.77,0.01
01:02:30,4.6780,0.0091,1.2533,0.3916,40.57,35.14,660.0,0.04,0.3,0.0,0.0,66.0,6.6,0.0
01:03:00,2.7580,0.7327,1.2704,0.3977,41.13,35.69,623.0,2.02,16.8,0.07,0.7,62.3,6.23,0.26
01:03:30,2.6540,0.7006,1.2866,0.4037,41.65,36.24,652.0,1.86,15.5,0.06,0.6,65.2,6.52,0.23
01:04:00,3.4930,0.9192,1.3064,0.4103,42.29,36.82,647.0,3.21,26.8,0.11,1.1,64.7,6.47,0.4
01:04:30,3.1750,0.6830,1.3237,0.4149,42.85,37.24,627.0,2.17,18.1,0.08,0.8,62.7,6.27,0.28
01:05:00,2.7220,0.7666,1.3386,0.4204,43.33,37.74,536.0,2.09,17.4,0.07,0.7,53.6,5.36,0.31
01:05:30,2.5880,0.6222,1.3539,0.4261,43.83,38.25,610.0,1.61,13.4,0.06,0.6,61.0,6.1,0.21
01:06:00,2.5530,0.5351,1.3677,0.4313,44.28,38.71,603.0,1.37,11.4,0.05,0.5,60.3,6.03,0.18
01:06:30,2.9350,0.6803,1.3789,0.4351,44.64,39.05,523.0,2.0,16.7,0.07,0.7,52.3,5.23,0.31
01:07:00,2.9990,0.6261,1.3903,0.4388,45.01,39.39,528.0,1.88,15.7,0.07,0.7,52.8,5.28,0.29
01:07:30,5.1590,0.0659,1.4048,0.4432,45.48,39.78,524.0,0.34,2.8,0.01,0.1,52.4,5.24,0.05
01:08:00,2.4680,0.4404,1.4161,0.4475,45.84,40.16,429.0,1.09,9.1,0.04,0.4,42.9,4.29,0.2
01:08:30,2.2500,0.2749,1.4218,0.4499,46.03,40.39,297.0,0.62,5.2,0.02,0.2,29.7,2.97,0.17
01:09:00,2.2360,0.2536,1.4267,0.4521,46.18,40.58,260.0,0.57,4.7,0.02,0.2,26.0,2.6,0.18
01:09:30,3.0200,0.3991,1.4363,0.4552,46.50,40.86,262.0,1.21,10.1,0.04,0.4,26.2,2.62,0.37
01:10:00,2.5210,0.3501,1.4444,0.4583,46.76,41.13,270.0,0.88,7.3,0.03,0.3,27.0,2.7,0.26
01:10:30,2.3980,0.3334,1.4509,0.4609,46.97,41.37,270.0,0.8,6.7,0.03,0.3,27.0,2.7,0.24
01:11:00,3.2920,0.7773,1.4660,0.4660,47.46,41.83,469.0,2.56,21.3,0.09,0.9,46.9,4.69,0.44
01:11:30,3.3910,0.9264,1.4824,0.4710,47.99,42.27,591.0,3.14,26.2,0.11,1.1,59.1,5.91,0.43
01:12:00,3.7260,1.0405,1.4978,0.4749,48.49,42.62,645.0,3.88,32.3,0.13,1.3,64.5,6.45,0.49
01:12:30,3.2390,0.9343,1.5190,0.4819,49.17,43.25,650.0,3.03,25.3,0.11,1.1,65.0,6.5,0.38
01:13:00,3.6710,1.0285,1.5370,0.4871,49.76,43.72,650.0,3.78,31.5,0.13,1.3,65.0,6.5,0.47
01:13:30,4.6780,0.0091,1.5373,0.4872,49.77,43.73,645.0,0.04,0.3,0.0,0.0,64.5,6.45,0.01
01:14:00,4.6030,0.0091,1.5377,0.4872,49.78,43.73,633.0,0.04,0.3,0.0,0.0,63.3,6.33,0.01
01:14:30,2.9740,0.8286,1.5447,0.4896,50.01,43.94,618.0,2.46,20.5,0.09,0.9,61.8,6.18,0.32
01:15:00,2.6070,0.6469,1.5597,0.4952,50.49,44.45,604.0,1.69,14.1,0.06,0.6,60.4,6.04,0.23
01:15:30,2.6200,0.6609,1.5737,0.5006,50.94,44.93,603.0,1.73,14.4,0.06,0.6,60.3,6.03,0.23
01:16:00,4.7000,0.0092,1.5894,0.5053,51.45,45.35,606.0,0.04,0.3,0.0,0.0,60.6,6.06,0.01
01:16:30,2.9520,0.7349,1.5964,0.5075,51.68,45.55,608.0,2.17,18.1,0.08,0.8,60.8,6.08,0.29
01:17:00,3.6680,0.9028,1.6080,0.5105,52.05,45.82,605.0,3.31,27.6,0.11,1.1,60.5,6.05,0.44
01:17:30,2.9460,0.7699,1.6284,0.5171,52.71,46.41,580.0,2.27,18.9,0.08,0.8,58.0,5.8,0.32
01:18:00,2.6710,0.6755,1.6447,0.5230,53.24,46.94,604.0,1.8,15.0,0.06,0.6,60.4,6.04,0.24
01:18:30,2.6970,0.7063,1.6601,0.5287,53.74,47.46,618.0,1.9,15.8,0.07,0.7,61.8,6.18,0.25
01:19:00,4.9220,0.0093,1.6736,0.5325,54.18,47.80,630.0,0.05,0.4,0.0,0.0,63.0,6.3,0.01
01:19:30,4.9230,0.0092,1.6902,0.5376,54.72,48.25,645.0,0.05,0.4,0.0,0.0,64.5,6.45,0.01
01:20:00,3.7570,0.9351,1.7059,0.5414,55.22,48.59,638.0,3.51,29.3,0.12,1.2,63.8,6.38,0.44
01:20:30,2.9350,0.7789,1.7125,0.5436,55.44,48.79,618.0,2.29,19.1,0.08,0.8,61.8,6.18,0.3
01:21:00,4.6340,0.8143,1.7276,0.5469,55.93,49.09,619.0,3.77,31.4,0.13,1.3,61.9,6.19,0.49
01:21:30,4.4400,0.9546,1.7396,0.5496,56.31,49.33,629.0,4.24,35.3,0.15,1.5,62.9,6.29,0.54
01:22:00,4.6820,0.0092,1.7471,0.5519,56.56,49.54,623.0,0.04,0.3,0.0,0.0,62.3,6.23,0.01
01:22:30,4.6920,0.0091,1.7639,0.5566,57.10,49.95,607.0,0.04,0.3,0.0,0.0,60.7,6.07,0.01
01:23:00,4.7090,0.0091,1.7762,0.5595,57.50,50.22,604.0,0.04,0.3,0.0,0.0,60.4,6.04,0.01
01:23:30,2.6200,0.6192,1.7912,0.5649,57.99,50.71,573.0,1.62,13.5,0.06,0.6,57.3,5.73,0.23
01:24:00,2.4420,0.5338,1.8024,0.5695,58.35,51.12,542.0,1.3,10.8,0.05,0.5,54.2,5.42,0.19
01:24:30,5.2200,0.0498,1.8063,0.5709,58.47,51.25,501.0,0.26,2.2,0.01,0.1,50.1,5.01,0.04
01:25:00,2.6780,0.5405,1.8194,0.5756,58.90,51.67,464.0,1.45,12.1,0.05,0.5,46.4,4.64,0.25
01:25:30,2.4710,0.4670,1.8299,0.5798,59.24,52.04,461.0,1.15,9.6,0.04,0.4,46.1,4.61,0.2
01:26:00,2.3350,0.3912,1.8384,0.5833,59.51,52.36,467.0,0.91,7.6,0.03,0.3,46.7,4.67,0.16
01:26:30,2.3190,0.3681,1.8455,0.5864,59.74,52.63,433.0,0.85,7.1,0.03,0.3,43.3,4.33,0.16
01:27:00,2.2790,0.3351,1.8524,0.5894,59.97,52.90,424.0,0.76,6.3,0.03,0.3,42.4,4.24,0.14
01:27:30,2.2760,0.3698,1.8590,0.5923,60.18,53.16,410.0,0.84,7.0,0.03,0.3,41.0,4.1,0.17
01:28:00,2.2910,0.3419,1.8657,0.5952,60.40,53.42,433.0,0.78,6.5,0.03,0.3,43.3,4.33,0.15
01:28:30,2.2870,0.3456,1.8723,0.5981,60.61,53.68,436.0,0.79,6.6,0.03,0.3,43.6,4.36,0.15
01:29:00,2.3250,0.3671,1.8794,0.6011,60.84,53.96,454.0,0.85,7.1,0.03,0.3,45.4,4.54,0.15
01:29:30,2.3650,0.4185,1.8871,0.6044,61.09,54.25,470.0,0.99,8.3,0.03,0.3,47.0,4.7,0.17
01:30:00,2.9220,0.5986,1.8985,0.6088,61.46,54.64,478.0,1.75,14.6,0.06,0.6,47.8,4.78,0.3
01:30:30,4.6030,0.0092,1.8989,0.6088,61.47,54.65,484.0,0.04,0.3,0.0,0.0,48.4,4.84,0.01
01:31:00,2.5660,0.5226,1.9116,0.6136,61.88,55.07,485.0,1.34,11.2,0.05,0.5,48.5,4.85,0.22
01:31:30,2.4250,0.4759,1.9219,0.6178,62.22,55.45,472.0,1.15,9.6,0.04,0.4,47.2,4.72,0.2
01:32:00,2.7510,0.5780,1.9374,0.6229,62.72,55.91,478.0,1.59,13.3,0.06,0.6,47.8,4.78,0.27
01:32:30,2.4960,0.5106,1.9483,0.6272,63.07,56.30,470.0,1.27,10.6,0.04,0.4,47.0,4.7,0.22
01:33:00,2.3560,0.4328,1.9568,0.6308,63.35,56.62,446.0,1.02,8.5,0.04,0.4,44.6,4.46,0.18
01:33:30,2.3120,0.3712,1.9643,0.6340,63.59,56.91,436.0,0.86,7.2,0.03,0.3,43.6,4.36,0.16
01:34:00,2.2990,0.3660,1.9714,0.6371,63.82,57.18,439.0,0.84,7.0,0.03,0.3,43.9,4.39,0.15
01:34:30,2.2910,0.3532,1.9783,0.6401,64.04,57.45,441.0,0.81,6.8,0.03,0.3,44.1,4.41,0.15
01:35:00,2.2940,0.3501,1.9853,0.6431,64.27,57.73,438.0,0.8,6.7,0.03,0.3,43.8,4.38,0.15
01:35:30,2.2990,0.3544,1.9921,0.6461,64.49,57.99,439.0,0.81,6.8,0.03,0.3,43.9,4.39,0.15
01:36:00,2.3240,0.4050,1.9993,0.6492,64.72,58.27,439.0,0.94,7.8,0.03,0.3,43.9,4.39,0.17
01:36:30,2.3940,0.4274,2.0076,0.6527,64.99,58.59,448.0,1.02,8.5,0.04,0.4,44.8,4.48,0.18
01:37:00,2.9180,0.5563,2.0201,0.6572,65.40,58.99,444.0,1.62,13.5,0.06,0.6,44.4,4.44,0.29
01:37:30,2.5540,0.4729,2.0310,0.6613,65.75,59.36,426.0,1.21,10.1,0.04,0.4,42.6,4.26,0.23
01:38:00,2.4140,0.4315,2.0402,0.6651,66.05,59.69,444.0,1.04,8.7,0.04,0.4,44.4,4.44,0.19
01:38:30,2.3180,0.3643,2.0476,0.6682,66.29,59.98,439.0,0.84,7.0,0.03,0.3,43.9,4.39,0.15
01:39:00,2.2900,0.3376,2.0545,0.6712,66.51,60.25,429.0,0.77,6.4,0.03,0.3,42.9,4.29,0.14
01:39:30,2.2760,0.3147,2.0611,0.6741,66.72,60.51,399.0,0.72,6.0,0.03,0.3,39.9,3.99,0.15
01:40:00,2.2790,0.3039,2.0669,0.6766,66.91,60.73,380.0,0.69,5.8,0.02,0.2,38.0,3.8,0.15
01:40:30,2.2890,0.3104,2.0728,0.6792,67.10,60.97,391.0,0.71,5.9,0.02,0.2,39.1,3.91,0.15
01:41:00,2.2880,0.3344,2.0789,0.6819,67.30,61.21,390.0,0.77,6.4,0.03,0.3,39.0,3.9,0.16
01:41:30,2.2900,0.3115,2.0850,0.6846,67.50,61.44,390.0,0.71,5.9,0.02,0.2,39.0,3.9,0.15
01:42:00,2.2930,0.3014,2.0910,0.6872,67.69,61.68,383.0,0.69,5.8,0.02,0.2,38.3,3.83,0.15
01:42:30,2.2970,0.3043,2.0972,0.6899,67.89,61.92,375.0,0.7,5.8,0.02,0.2,37.5,3.75,0.15
01:43:00,2.2910,0.2863,2.1031,0.6924,68.08,62.15,368.0,0.66,5.5,0.02,0.2,36.8,3.68,0.14
01:43:30,2.3070,0.3122,2.1088,0.6949,68.27,62.37,338.0,0.72,6.0,0.03,0.3,33.8,3.38,0.17
01:44:00,2.3040,0.2864,2.1142,0.6973,68.44,62.59,353.0,0.66,5.5,0.02,0.2,35.3,3.53,0.15
01:44:30,2.2990,0.2857,2.1201,0.6998,68.63,62.81,344.0,0.66,5.5,0.02,0.2,34.4,3.44,0.15
01:45:00,2.3230,0.3053,2.1258,0.7023,68.82,63.03,338.0,0.71,5.9,0.02,0.2,33.8,3.38,0.17
01:45:30,2.3030,0.2534,2.1310,0.7046,68.99,63.24,320.0,0.58,4.8,0.02,0.2,32.0,3.2,0.15
01:46:00,2.3040,0.2647,2.1363,0.7068,69.16,63.44,316.0,0.61,5.1,0.02,0.2,31.6,3.16,0.16
01:46:30,2.3090,0.2807,2.1414,0.7090,69.32,63.64,288.0,0.65,5.4,0.02,0.2,28.8,2.88,0.18
01:47:00,2.3100,0.2370,2.1462,0.7111,69.48,63.83,289.0,0.55,4.6,0.02,0.2,28.9,2.89,0.15
01:47:30,2.3020,0.2236,2.1503,0.7129,69.61,63.99,212.0,0.51,4.3,0.02,0.2,21.2,2.12,0.19
01:48:00,2.4960,0.2505,2.1564,0.7151,69.81,64.19,192.5,0.63,5.3,0.02,0.2,19.3,1.925,0.26
01:48:30,2.3510,0.2249,2.1608,0.7169,69.95,64.35,194.0,0.53,4.4,0.02,0.2,19.4,1.94,0.22
01:49:00,2.3130,0.2060,2.1648,0.7187,70.08,64.51,168.9,0.48,4.0,0.02,0.2,16.9,1.689,0.23
01:49:30,2.2950,0.1783,2.1684,0.7202,70.20,64.64,164.9,0.41,3.4,0.01,0.1,16.5,1.649,0.2
01:50:00,2.2930,0.1795,2.1720,0.7218,70.31,64.79,159.7,0.41,3.4,0.01,0.1,16.0,1.597,0.21
01:50:30,2.3100,0.1785,2.1754,0.7233,70.42,64.92,155.7,0.41,3.4,0.01,0.1,15.6,1.557,0.21
01:51:00,2.2970,0.1734,2.1788,0.7247,70.53,65.05,152.3,0.4,3.3,0.01,0.1,15.2,1.523,0.21
01:51:30,2.2990,0.1751,2.1821,0.7262,70.64,65.18,150.0,0.4,3.3,0.01,0.1,15.0,1.5,0.22
01:52:00,2.3040,0.1830,2.1856,0.7277,70.75,65.32,151.5,0.42,3.5,0.01,0.1,15.2,1.515,0.22
01:52:30,2.3110,0.1927,2.1894,0.7293,70.88,65.46,171.7,0.45,3.8,0.02,0.2,17.2,1.717,0.21
01:53:00,2.3220,0.2225,2.1937,0.7312,71.02,65.63,217.0,0.52,4.3,0.02,0.2,21.7,2.17,0.19
01:53:30,2.3270,0.2185,2.1979,0.7330,71.15,65.79,228.0,0.51,4.3,0.02,0.2,22.8,2.28,0.18
01:54:00,2.3440,0.2106,2.2020,0.7348,71.28,65.95,212.0,0.49,4.1,0.02,0.2,21.2,2.12,0.19
01:54:30,2.3220,0.2250,2.2061,0.7365,71.42,66.11,207.0,0.52,4.3,0.02,0.2,20.7,2.07,0.2
01:55:00,2.3210,0.2017,2.2100,0.7382,71.54,66.26,194.5,0.47,3.9,0.02,0.2,19.5,1.945,0.19
01:55:30,2.3190,0.2065,2.2139,0.7399,71.67,66.41,196.5,0.48,4.0,0.02,0.2,19.7,1.965,0.2
01:56:00,2.3450,0.2237,2.2182,0.7417,71.81,66.57,200.0,0.52,4.3,0.02,0.2,20.0,2.0,0.21
01:56:30,2.3230,0.2029,2.2221,0.7434,71.94,66.73,209.0,0.47,3.9,0.02,0.2,20.9,2.09,0.18
01:57:00,2.3280,0.2276,2.2262,0.7452,72.07,66.88,203.0,0.53,4.4,0.02,0.2,20.3,2.03,0.21
01:57:30,2.3230,0.2007,2.2302,0.7469,72.20,67.04,205.0,0.47,3.9,0.02,0.2,20.5,2.05,0.18
01:58:00,2.3310,0.1993,2.2343,0.7487,72.33,67.20,197.0,0.46,3.8,0.02,0.2,19.7,1.97,0.19
01:58:30,2.3200,0.1956,2.2381,0.7503,72.45,67.34,189.0,0.45,3.8,0.02,0.2,18.9,1.89,0.19
01:59:00,2.3230,0.1955,2.2419,0.7519,72.58,67.49,186.5,0.45,3.8,0.02,0.2,18.7,1.865,0.19
01:59:30,2.3210,0.1980,2.2458,0.7536,72.70,67.64,187.0,0.46,3.8,0.02,0.2,18.7,1.87,0.2
02:00:00,2.3230,0.1986,2.2498,0.7553,72.83,67.79,192.0,0.46,3.8,0.02,0.2,19.2,1.92,0.19
02:00:30,2.3230,0.1960,2.2538,0.7570,72.96,67.95,189.0,0.46,3.8,0.02,0.2,18.9,1.89,0.2
02:01:00,2.3270,0.1921,2.2575,0.7586,73.08,68.09,182.0,0.45,3.8,0.02,0.2,18.2,1.82,0.2
02:01:30,2.3230,0.2061,2.2613,0.7603,73.20,68.24,170.9,0.48,4.0,0.02,0.2,17.1,1.709,0.23
02:02:00,2.3190,0.1852,2.2648,0.7618,73.32,68.37,163.6,0.43,3.6,0.01,0.1,16.4,1.636,0.21
02:02:30,2.3170,0.1721,2.2681,0.7632,73.43,68.50,153.6,0.4,3.3,0.01,0.1,15.4,1.536,0.21
02:03:00,2.3170,0.1705,2.2714,0.7646,73.53,68.63,144.0,0.4,3.3,0.01,0.1,14.4,1.44,0.22
02:03:30,2.3270,0.1858,2.2750,0.7662,73.65,68.77,135.6,0.43,3.6,0.01,0.1,13.6,1.356,0.26
02:04:00,2.3160,0.1621,2.2783,0.7676,73.75,68.89,132.7,0.38,3.2,0.01,0.1,13.3,1.327,0.23
02:04:30,2.3150,0.1623,2.2814,0.7689,73.85,69.02,128.8,0.38,3.2,0.01,0.1,12.9,1.288,0.24
02:05:00,2.3150,0.1581,2.2846,0.7703,73.96,69.14,127.4,0.37,3.1,0.01,0.1,12.7,1.274,0.23
02:05:30,2.3140,0.1580,2.2877,0.7716,74.06,69.26,125.5,0.37,3.1,0.01,0.1,12.6,1.255,0.24
02:06:00,2.3160,0.1577,2.2909,0.7730,74.16,69.38,122.8,0.37,3.1,0.01,0.1,12.3,1.228,0.24
02:06:30,2.3140,0.1612,2.2939,0.7743,74.26,69.50,122.2,0.37,3.1,0.01,0.1,12.2,1.222,0.24
02:07:00,2.3210,0.1582,2.2970,0.7756,74.36,69.62,122.6,0.37,3.1,0.01,0.1,12.3,1.226,0.24
02:07:30,2.3250,0.1582,2.3002,0.7770,74.46,69.74,120.9,0.37,3.1,0.01,0.1,12.1,1.209,0.25
02:08:00,2.3150,0.1593,2.3034,0.7784,74.57,69.87,121.9,0.37,3.1,0.01,0.1,12.2,1.219,0.24
02:08:30,2.3150,0.1576,2.3066,0.7798,74.67,69.99,121.5,0.36,3.0,0.01,0.1,12.2,1.215,0.24
02:09:00,2.3150,0.1601,2.3096,0.7811,74.77,70.11,122.0,0.37,3.1,0.01,0.1,12.2,1.22,0.24
02:09:30,2.3170,0.1586,2.3127,0.7824,74.87,70.23,122.3,0.37,3.1,0.01,0.1,12.2,1.223,0.24
02:10:00,2.3140,0.1575,2.3158,0.7837,74.97,70.35,121.2,0.36,3.0,0.01,0.1,12.1,1.212,0.24
02:10:30,2.3130,0.1557,2.3189,0.7851,75.07,70.47,121.8,0.36,3.0,0.01,0.1,12.2,1.218,0.24
02:11:00,2.3150,0.1602,2.3220,0.7864,75.17,70.59,121.8,0.37,3.1,0.01,0.1,12.2,1.218,0.24
02:11:30,2.3260,0.1762,2.3252,0.7878,75.27,70.71,122.3,0.41,3.4,0.01,0.1,12.2,1.223,0.27
02:12:00,2.3180,0.1672,2.3284,0.7892,75.38,70.84,121.3,0.39,3.3,0.01,0.1,12.1,1.213,0.26
02:12:30,2.3220,0.1772,2.3317,0.7906,75.48,70.96,120.4,0.41,3.4,0.01,0.1,12.0,1.204,0.27
02:13:00,2.3200,0.1563,2.3348,0.7919,75.58,71.08,121.2,0.36,3.0,0.01,0.1,12.1,1.212,0.24
02:13:30,2.3210,0.1672,2.3380,0.7933,75.69,71.20,122.9,0.39,3.3,0.01,0.1,12.3,1.229,0.26
02:14:00,2.3160,0.1593,2.3410,0.7946,75.78,71.32,123.1,0.37,3.1,0.01,0.1,12.3,1.231,0.24
02:14:30,2.3180,0.1594,2.3442,0.7960,75.89,71.45,123.9,0.37,3.1,0.01,0.1,12.4,1.239,0.24
02:15:00,2.3180,0.1629,2.3474,0.7974,75.99,71.57,125.0,0.38,3.2,0.01,0.1,12.5,1.25,0.25
02:15:30,2.3200,0.1607,2.3505,0.7987,76.09,71.69,123.6,0.37,3.1,0.01,0.1,12.4,1.236,0.24
02:16:00,2.3180,0.1621,2.3537,0.8001,76.19,71.81,126.3,0.38,3.2,0.01,0.1,12.6,1.263,0.24
02:16:30,2.3200,0.1600,2.3568,0.8014,76.29,71.93,128.7,0.37,3.1,0.01,0.1,12.9,1.287,0.23
02:17:00,2.3230,0.1706,2.3602,0.8029,76.41,72.06,129.1,0.4,3.3,0.01,0.1,12.9,1.291,0.25
02:17:30,2.3210,0.1741,2.3634,0.8043,76.51,72.19,131.6,0.4,3.3,0.01,0.1,13.2,1.316,0.25
02:18:00,2.3220,0.1641,2.3666,0.8056,76.61,72.31,134.0,0.38,3.2,0.01,0.1,13.4,1.34,0.23
02:18:30,2.3420,0.1658,2.3699,0.8071,76.72,72.44,136.9,0.39,3.3,0.01,0.1,13.7,1.369,0.23
02:19:00,2.3220,0.1672,2.3731,0.8084,76.82,72.56,138.6,0.39,3.3,0.01,0.1,13.9,1.386,0.23
02:19:30,2.3220,0.1691,2.3764,0.8099,76.93,72.69,142.8,0.39,3.3,0.01,0.1,14.3,1.428,0.22
02:20:00,2.3250,0.1895,2.3798,0.8113,77.04,72.82,143.8,0.44,3.7,0.02,0.2,14.4,1.438,0.25
02:20:30,2.3240,0.1883,2.3832,0.8128,77.15,72.95,141.8,0.44,3.7,0.02,0.2,14.2,1.418,0.25
02:21:00,2.3220,0.1675,2.3866,0.8142,77.26,73.08,138.9,0.39,3.3,0.01,0.1,13.9,1.389,0.23
02:21:30,2.3200,0.1642,2.3898,0.8156,77.36,73.21,139.1,0.38,3.2,0.01,0.1,13.9,1.391,0.22
02:22:00,2.3230,0.1864,2.3934,0.8172,77.48,73.35,139.0,0.43,3.6,0.01,0.1,13.9,1.39,0.25
02:22:30,2.3250,0.1879,2.3967,0.8186,77.59,73.48,138.1,0.44,3.7,0.02,0.2,13.8,1.381,0.26
02:23:00,2.3370,0.1802,2.4001,0.8200,77.70,73.61,139.1,0.42,3.5,0.01,0.1,13.9,1.391,0.24
02:23:30,2.3230,0.1691,2.4034,0.8215,77.80,73.73,137.6,0.39,3.3,0.01,0.1,13.8,1.376,0.23
02:24:00,2.3290,0.1815,2.4067,0.8229,77.91,73.86,139.9,0.42,3.5,0.01,0.1,14.0,1.399,0.24
02:24:30,2.3290,0.1712,2.4103,0.8244,78.03,74.00,143.7,0.4,3.3,0.01,0.1,14.4,1.437,0.22
02:25:00,2.3290,0.1712,2.4137,0.8259,78.14,74.13,148.1,0.4,3.3,0.01,0.1,14.8,1.481,0.22
02:25:30,2.3250,0.1768,2.4171,0.8274,78.25,74.26,150.0,0.41,3.4,0.01,0.1,15.0,1.5,0.22
02:26:00,2.3300,0.1748,2.4208,0.8289,78.37,74.40,150.5,0.41,3.4,0.01,0.1,15.1,1.505,0.22
02:26:30,2.3270,0.1770,2.4242,0.8304,78.48,74.53,151.9,0.41,3.4,0.01,0.1,15.2,1.519,0.22
02:27:00,2.3330,0.1735,2.4276,0.8318,78.59,74.66,143.5,0.4,3.3,0.01,0.1,14.4,1.435,0.22
02:27:30,2.3300,0.1723,2.4310,0.8333,78.70,74.80,145.0,0.4,3.3,0.01,0.1,14.5,1.45,0.22
02:28:00,2.3280,0.1667,2.4343,0.8347,78.80,74.92,140.4,0.39,3.3,0.01,0.1,14.0,1.404,0.22
02:28:30,2.3260,0.1721,2.4376,0.8362,78.91,75.05,142.6,0.4,3.3,0.01,0.1,14.3,1.426,0.23
02:29:00,2.3230,0.1659,2.4409,0.8376,79.02,75.18,138.1,0.39,3.3,0.01,0.1,13.8,1.381,0.23
02:29:30,2.3360,0.1694,2.4441,0.8390,79.12,75.30,141.9,0.4,3.3,0.01,0.1,14.2,1.419,0.23
02:30:00,2.3260,0.1664,2.4474,0.8404,79.23,75.43,138.5,0.39,3.3,0.01,0.1,13.9,1.385,0.23
02:30:30,2.3230,0.1689,2.4508,0.8418,79.34,75.56,136.3,0.39,3.3,0.01,0.1,13.6,1.363,0.23
02:31:00,2.3230,0.1833,2.4541,0.8433,79.45,75.69,134.9,0.43,3.6,0.01,0.1,13.5,1.349,0.26
02:31:30,2.3240,0.1624,2.4573,0.8446,79.55,75.81,134.5,0.38,3.2,0.01,0.1,13.5,1.345,0.23
02:32:00,2.3220,0.1646,2.4605,0.8460,79.65,75.94,132.0,0.38,3.2,0.01,0.1,13.2,1.32,0.23
02:32:30,2.3250,0.1817,2.4639,0.8475,79.76,76.07,129.6,0.42,3.5,0.01,0.1,13.0,1.296,0.26
02:33:00,2.3200,0.1615,2.4671,0.8488,79.87,76.19,129.5,0.37,3.1,0.01,0.1,13.0,1.295,0.23
02:33:30,2.3220,0.1626,2.4702,0.8502,79.97,76.31,126.2,0.38,3.2,0.01,0.1,12.6,1.262,0.24
02:34:00,2.3370,0.1649,2.4734,0.8516,80.07,76.43,126.0,0.39,3.3,0.01,0.1,12.6,1.26,0.25
02:34:30,2.3230,0.1598,2.4766,0.8529,80.17,76.56,125.8,0.37,3.1,0.01,0.1,12.6,1.258,0.24
02:35:00,2.3290,0.1648,2.4797,0.8543,80.28,76.68,124.5,0.38,3.2,0.01,0.1,12.5,1.245,0.25
02:35:30,2.3190,0.1616,2.4828,0.8556,80.38,76.80,122.5,0.37,3.1,0.01,0.1,12.3,1.225,0.24
02:36:00,2.3230,0.1773,2.4860,0.8570,80.48,76.92,121.9,0.41,3.4,0.01,0.1,12.2,1.219,0.27
02:36:30,2.3170,0.1609,2.4892,0.8583,80.58,77.04,121.0,0.37,3.1,0.01,0.1,12.1,1.21,0.25
02:37:00,2.3170,0.1555,2.4922,0.8596,80.68,77.16,121.0,0.36,3.0,0.01,0.1,12.1,1.21,0.24
02:37:30,2.3220,0.1583,2.4952,0.8609,80.78,77.28,119.0,0.37,3.1,0.01,0.1,11.9,1.19,0.25
02:38:00,2.3170,0.1560,2.4983,0.8623,80.88,77.40,117.1,0.36,3.0,0.01,0.1,11.7,1.171,0.25
02:38:30,2.3250,0.1738,2.5016,0.8637,80.98,77.52,117.3,0.4,3.3,0.01,0.1,11.7,1.173,0.28
02:39:00,2.3230,0.1641,2.5046,0.8650,81.08,77.64,117.0,0.38,3.2,0.01,0.1,11.7,1.17,0.26
02:39:30,2.3220,0.1536,2.5076,0.8663,81.18,77.75,114.8,0.36,3.0,0.01,0.1,11.5,1.148,0.25
02:40:00,2.3310,0.1570,2.5106,0.8676,81.28,77.87,115.0,0.37,3.1,0.01,0.1,11.5,1.15,0.26
02:40:30,2.3180,0.1592,2.5136,0.8689,81.37,77.99,116.1,0.37,3.1,0.01,0.1,11.6,1.161,0.26
02:41:00,2.3170,0.1550,2.5168,0.8702,81.47,78.11,114.3,0.36,3.0,0.01,0.1,11.4,1.143,0.25
02:41:30,2.3190,0.1705,2.5200,0.8716,81.58,78.23,112.7,0.4,3.3,0.01,0.1,11.3,1.127,0.29
02:42:00,2.3170,0.1524,2.5230,0.8729,81.67,78.35,113.7,0.35,2.9,0.01,0.1,11.4,1.137,0.25
02:42:30,2.3250,0.1523,2.5260,0.8742,81.77,78.47,111.9,0.35,2.9,0.01,0.1,11.2,1.119,0.25
02:43:00,2.3170,0.1534,2.5290,0.8755,81.87,78.58,111.9,0.36,3.0,0.01,0.1,11.2,1.119,0.26
02:43:30,2.3210,0.1519,2.5320,0.8768,81.97,78.70,112.2,0.35,2.9,0.01,0.1,11.2,1.122,0.25
02:44:00,2.3140,0.1538,2.5349,0.8780,82.06,78.81,111.1,0.36,3.0,0.01,0.1,11.1,1.111,0.26
02:44:30,2.3250,0.1588,2.5380,0.8794,82.16,78.93,110.0,0.37,3.1,0.01,0.1,11.0,1.1,0.27
02:45:00,2.3160,0.1509,2.5410,0.8806,82.26,79.04,109.3,0.35,2.9,0.01,0.1,10.9,1.093,0.26
02:45:30,2.3260,0.1512,2.5439,0.8819,82.35,79.16,109.3,0.35,2.9,0.01,0.1,10.9,1.093,0.26
02:46:00,2.3170,0.1487,2.5468,0.8832,82.45,79.27,107.6,0.34,2.8,0.01,0.1,10.8,1.076,0.25
02:46:30,2.3210,0.1615,2.5498,0.8845,82.54,79.39,106.2,0.37,3.1,0.01,0.1,10.6,1.062,0.28
02:47:00,2.3200,0.1497,2.5527,0.8857,82.64,79.50,107.3,0.35,2.9,0.01,0.1,10.7,1.073,0.26
02:47:30,2.3310,0.1679,2.5557,0.8870,82.73,79.61,106.8,0.39,3.3,0.01,0.1,10.7,1.068,0.29
02:48:00,2.3210,0.1567,2.5587,0.8883,82.83,79.73,107.6,0.36,3.0,0.01,0.1,10.8,1.076,0.27
02:48:30,2.3370,0.1669,2.5619,0.8896,82.93,79.85,106.7,0.39,3.3,0.01,0.1,10.7,1.067,0.29
02:49:00,2.3310,0.1495,2.5650,0.8910,83.04,79.97,108.6,0.35,2.9,0.01,0.1,10.9,1.086,0.26
02:49:30,2.3280,0.1512,2.5679,0.8922,83.13,80.08,107.8,0.35,2.9,0.01,0.1,10.8,1.078,0.26
02:50:00,2.3310,0.1694,2.5710,0.8935,83.23,80.20,108.6,0.39,3.3,0.01,0.1,10.9,1.086,0.29
02:50:30,2.3390,0.1626,2.5739,0.8948,83.32,80.32,108.5,0.38,3.2,0.01,0.1,10.9,1.085,0.28
02:51:00,2.3210,0.1486,2.5768,0.8961,83.42,80.43,109.5,0.34,2.8,0.01,0.1,11.0,1.095,0.25
02:51:30,2.3210,0.1500,2.5797,0.8973,83.51,80.54,108.4,0.35,2.9,0.01,0.1,10.8,1.084,0.26
02:52:00,2.3320,0.1559,2.5828,0.8986,83.61,80.66,108.4,0.36,3.0,0.01,0.1,10.8,1.084,0.27
02:52:30,2.3230,0.1508,2.5857,0.8999,83.71,80.77,108.6,0.35,2.9,0.01,0.1,10.9,1.086,0.26
02:53:00,2.3250,0.1689,2.5888,0.9012,83.81,80.89,107.6,0.39,3.3,0.01,0.1,10.8,1.076,0.29
02:53:30,2.3200,0.1492,2.5920,0.9026,83.91,81.01,108.8,0.35,2.9,0.01,0.1,10.9,1.088,0.26
02:54:00,2.3230,0.1513,2.5950,0.9039,84.01,81.13,109.4,0.35,2.9,0.01,0.1,10.9,1.094,0.26
02:54:30,2.3200,0.1503,2.5979,0.9051,84.10,81.24,110.0,0.35,2.9,0.01,0.1,11.0,1.1,0.26
02:55:00,2.3200,0.1499,2.6008,0.9064,84.19,81.35,109.5,0.35,2.9,0.01,0.1,11.0,1.095,0.26
02:55:30,2.3210,0.1521,2.6038,0.9077,84.29,81.47,109.6,0.35,2.9,0.01,0.1,11.0,1.096,0.26
02:56:00,2.3310,0.1679,2.6068,0.9090,84.39,81.59,107.9,0.39,3.3,0.01,0.1,10.8,1.079,0.29
02:56:30,2.3320,0.1668,2.6099,0.9103,84.49,81.70,109.1,0.39,3.3,0.01,0.1,10.9,1.091,0.29
02:57:00,2.3210,0.1496,2.6128,0.9115,84.58,81.82,109.9,0.35,2.9,0.01,0.1,11.0,1.099,0.26
02:57:30,2.3320,0.1498,2.6157,0.9128,84.68,81.93,108.2,0.35,2.9,0.01,0.1,10.8,1.082,0.26
02:58:00,2.3340,0.1596,2.6187,0.9141,84.77,82.04,109.3,0.37,3.1,0.01,0.1,10.9,1.093,0.27
02:58:30,2.3300,0.1502,2.6216,0.9153,84.87,82.16,110.2,0.35,2.9,0.01,0.1,11.0,1.102,0.26
02:59:00,2.3230,0.1504,2.6246,0.9166,84.97,82.27,108.4,0.35,2.9,0.01,0.1,10.8,1.084,0.26
02:59:30,2.3200,0.1536,2.6276,0.9179,85.06,82.39,108.9,0.36,3.0,0.01,0.1,10.9,1.089,0.27
03:00:00,2.3280,0.1510,2.6305,0.9192,85.16,82.50,108.9,0.35,2.9,0.01,0.1,10.9,1.089,0.26
03:00:30,2.3300,0.1710,2.6336,0.9205,85.26,82.62,110.0,0.4,3.3,0.01,0.1,11.0,1.1,0.29
03:01:00,2.3290,0.1550,2.6365,0.9217,85.35,82.73,109.4,0.36,3.0,0.01,0.1,10.9,1.094,0.27
03:01:30,2.3180,0.1503,2.6394,0.9230,85.45,82.85,109.8,0.35,2.9,0.01,0.1,11.0,1.098,0.26
03:02:00,2.3260,0.1609,2.6424,0.9243,85.54,82.96,111.5,0.37,3.1,0.01,0.1,11.2,1.115,0.27
03:02:30,2.3190,0.1545,2.6454,0.9256,85.64,83.08,113.0,0.36,3.0,0.01,0.1,11.3,1.13,0.26
03:03:00,2.3220,0.1695,2.6485,0.9269,85.74,83.20,113.1,0.39,3.3,0.01,0.1,11.3,1.131,0.28
03:03:30,2.3180,0.1512,2.6515,0.9282,85.84,83.31,114.1,0.35,2.9,0.01,0.1,11.4,1.141,0.25
03:04:00,2.3180,0.1517,2.6544,0.9295,85.93,83.43,114.0,0.35,2.9,0.01,0.1,11.4,1.14,0.25
03:04:30,2.3310,0.1544,2.6575,0.9308,86.03,83.55,115.2,0.36,3.0,0.01,0.1,11.5,1.152,0.25
03:05:00,2.3200,0.1575,2.6605,0.9321,86.13,83.66,115.1,0.37,3.1,0.01,0.1,11.5,1.151,0.26
03:05:30,2.3270,0.1692,2.6636,0.9334,86.23,83.78,114.8,0.39,3.3,0.01,0.1,11.5,1.148,0.27
03:06:00,2.3280,0.1649,2.6668,0.9348,86.33,83.90,116.0,0.38,3.2,0.01,0.1,11.6,1.16,0.26
03:06:30,2.3180,0.1579,2.6700,0.9361,86.43,84.03,119.7,0.37,3.1,0.01,0.1,12.0,1.197,0.25
03:07:00,2.3220,0.1758,2.6731,0.9375,86.54,84.15,120.1,0.41,3.4,0.01,0.1,12.0,1.201,0.28
03:07:30,2.3180,0.1581,2.6763,0.9389,86.64,84.27,119.2,0.37,3.1,0.01,0.1,11.9,1.192,0.25
03:08:00,2.3190,0.1602,2.6795,0.9403,86.74,84.39,120.3,0.37,3.1,0.01,0.1,12.0,1.203,0.25
03:08:30,2.3190,0.1593,2.6827,0.9416,86.85,84.52,122.7,0.37,3.1,0.01,0.1,12.3,1.227,0.24
03:09:00,2.3200,0.1621,2.6858,0.9430,86.95,84.64,125.6,0.38,3.2,0.01,0.1,12.6,1.256,0.24
03:09:30,2.3220,0.1621,2.6891,0.9444,87.05,84.76,126.6,0.38,3.2,0.01,0.1,12.7,1.266,0.24
03:10:00,2.3190,0.1673,2.6925,0.9458,87.16,84.90,132.1,0.39,3.3,0.01,0.1,13.2,1.321,0.24
03:10:30,2.3230,0.1709,2.6958,0.9472,87.27,85.02,139.0,0.4,3.3,0.01,0.1,13.9,1.39,0.23
03:11:00,2.3220,0.1732,2.6991,0.9487,87.38,85.15,145.5,0.4,3.3,0.01,0.1,14.6,1.455,0.22
03:11:30,2.3400,0.1794,2.7026,0.9502,87.49,85.29,154.5,0.42,3.5,0.01,0.1,15.5,1.545,0.22
03:12:00,2.3350,0.1852,2.7063,0.9518,87.61,85.43,160.8,0.43,3.6,0.01,0.1,16.1,1.608,0.22
03:12:30,2.3290,0.1870,2.7099,0.9533,87.73,85.57,167.8,0.44,3.7,0.02,0.2,16.8,1.678,0.21
03:13:00,2.3550,0.2204,2.7139,0.9550,87.85,85.72,179.4,0.52,4.3,0.02,0.2,17.9,1.794,0.23
03:13:30,2.3360,0.2173,2.7180,0.9568,87.99,85.88,206.0,0.51,4.3,0.02,0.2,20.6,2.06,0.2
03:14:00,2.3590,0.2599,2.7227,0.9588,88.14,86.06,234.0,0.61,5.1,0.02,0.2,23.4,2.34,0.21
03:14:30,2.3480,0.2444,2.7273,0.9608,88.29,86.23,262.0,0.57,4.7,0.02,0.2,26.2,2.62,0.18
03:15:00,2.3560,0.2802,2.7324,0.9629,88.46,86.43,274.0,0.66,5.5,0.02,0.2,27.4,2.74,0.19
03:15:30,2.3450,0.2619,2.7378,0.9652,88.63,86.63,277.0,0.61,5.1,0.02,0.2,27.7,2.77,0.18
03:16:00,2.3440,0.2527,2.7431,0.9675,88.80,86.84,275.0,0.59,4.9,0.02,0.2,27.5,2.75,0.17
03:16:30,2.3450,0.2494,2.7482,0.9696,88.97,87.03,277.0,0.58,4.8,0.02,0.2,27.7,2.77,0.17
03:17:00,2.3390,0.2471,2.7532,0.9718,89.13,87.22,279.0,0.58,4.8,0.02,0.2,27.9,2.79,0.17
03:17:30,2.3420,0.2547,2.7583,0.9740,89.29,87.42,275.0,0.6,5.0,0.02,0.2,27.5,2.75,0.18
03:18:00,2.3450,0.2587,2.7632,0.9760,89.45,87.61,268.0,0.61,5.1,0.02,0.2,26.8,2.68,0.18
03:18:30,2.3350,0.2385,2.7679,0.9780,89.60,87.79,261.0,0.56,4.7,0.02,0.2,26.1,2.61,0.17
03:19:00,2.3300,0.2450,2.7727,0.9801,89.76,87.97,258.0,0.57,4.7,0.02,0.2,25.8,2.58,0.18
03:19:30,2.3320,0.2379,2.7773,0.9821,89.91,88.15,258.0,0.55,4.6,0.02,0.2,25.8,2.58,0.17
03:20:00,2.5300,0.3093,2.7856,0.9850,90.18,88.41,262.0,0.78,6.5,0.03,0.3,26.2,2.62,0.24
03:20:30,2.3750,0.2837,2.7914,0.9874,90.36,88.63,262.0,0.67,5.6,0.02,0.2,26.2,2.62,0.21
03:21:00,2.3400,0.2726,2.7964,0.9895,90.53,88.82,261.0,0.64,5.3,0.02,0.2,26.1,2.61,0.2
03:21:30,2.3270,0.2339,2.8011,0.9916,90.68,89.00,264.0,0.54,4.5,0.02,0.2,26.4,2.64,0.16
03:22:00,2.3190,0.2541,2.8060,0.9937,90.84,89.19,267.0,0.59,4.9,0.02,0.2,26.7,2.67,0.18
03:22:30,2.3270,0.2335,2.8107,0.9957,90.99,89.37,265.0,0.54,4.5,0.02,0.2,26.5,2.65,0.16
03:23:00,2.3230,0.2586,2.8156,0.9978,91.15,89.56,264.0,0.6,5.0,0.02,0.2,26.4,2.64,0.18
03:23:30,3.4670,0.4531,2.8232,1.0004,91.39,89.79,264.0,1.57,13.1,0.05,0.5,26.4,2.64,0.48
03:24:00,2.4690,0.3116,2.8301,1.0031,91.62,90.04,261.0,0.77,6.4,0.03,0.3,26.1,2.61,0.24
03:24:30,2.3500,0.2703,2.8355,1.0054,91.79,90.24,258.0,0.64,5.3,0.02,0.2,25.8,2.58,0.2
03:25:00,2.3280,0.2356,2.8401,1.0074,91.94,90.42,257.0,0.55,4.6,0.02,0.2,25.7,2.57,0.17
03:25:30,2.3280,0.2326,2.8447,1.0093,92.09,90.59,251.0,0.54,4.5,0.02,0.2,25.1,2.51,0.17
03:26:00,2.3310,0.2293,2.8494,1.0113,92.24,90.77,247.0,0.53,4.4,0.02,0.2,24.7,2.47,0.17
03:26:30,2.3270,0.2297,2.8539,1.0132,92.39,90.95,246.0,0.53,4.4,0.02,0.2,24.6,2.46,0.17
03:27:00,2.3280,0.2299,2.8583,1.0152,92.53,91.12,243.0,0.54,4.5,0.02,0.2,24.3,2.43,0.18
03:27:30,2.3340,0.2266,2.8630,1.0172,92.68,91.30,243.0,0.53,4.4,0.02,0.2,24.3,2.43,0.18
03:28:00,2.3370,0.2396,2.8675,1.0191,92.83,91.47,237.0,0.56,4.7,0.02,0.2,23.7,2.37,0.19
03:28:30,2.3380,0.2492,2.8721,1.0211,92.98,91.65,237.0,0.58,4.8,0.02,0.2,23.7,2.37,0.2
03:29:00,2.3460,0.2282,2.8766,1.0230,93.12,91.82,235.0,0.54,4.5,0.02,0.2,23.5,2.35,0.19
03:29:30,2.3350,0.2511,2.8812,1.0250,93.27,92.00,233.0,0.59,4.9,0.02,0.2,23.3,2.33,0.2
03:30:00,2.3400,0.2218,2.8857,1.0269,93.42,92.17,231.0,0.52,4.3,0.02,0.2,23.1,2.31,0.18
03:30:30,2.3360,0.2386,2.8904,1.0289,93.57,92.35,229.0,0.56,4.7,0.02,0.2,22.9,2.29,0.2
03:31:00,2.3510,0.2212,2.8947,1.0307,93.71,92.52,227.0,0.52,4.3,0.02,0.2,22.7,2.27,0.18
03:31:30,2.3340,0.2246,2.8991,1.0326,93.85,92.68,226.0,0.52,4.3,0.02,0.2,22.6,2.26,0.19
03:32:00,2.3350,0.2225,2.9034,1.0344,93.99,92.85,225.0,0.52,4.3,0.02,0.2,22.5,2.25,0.19
03:32:30,2.3380,0.2159,2.9077,1.0363,94.13,93.02,221.0,0.5,4.2,0.02,0.2,22.1,2.21,0.18
03:33:00,2.3460,0.2158,2.9120,1.0381,94.27,93.18,218.0,0.51,4.3,0.02,0.2,21.8,2.18,0.19
03:33:30,2.3360,0.2148,2.9164,1.0400,94.41,93.35,217.0,0.5,4.2,0.02,0.2,21.7,2.17,0.19
03:34:00,2.3420,0.2328,2.9208,1.0419,94.55,93.52,215.0,0.55,4.6,0.02,0.2,21.5,2.15,0.21
03:34:30,2.3370,0.2147,2.9251,1.0437,94.69,93.68,215.0,0.5,4.2,0.02,0.2,21.5,2.15,0.19
03:35:00,2.3290,0.2086,2.9292,1.0455,94.83,93.84,209.0,0.49,4.1,0.02,0.2,20.9,2.09,0.19
03:35:30,2.3280,0.2127,2.9333,1.0473,94.96,94.00,211.0,0.5,4.2,0.02,0.2,21.1,2.11,0.19
03:36:00,2.3280,0.2112,2.9374,1.0490,95.09,94.16,207.0,0.49,4.1,0.02,0.2,20.7,2.07,0.19
03:36:30,2.3310,0.2081,2.9416,1.0508,95.23,94.32,202.0,0.49,4.1,0.02,0.2,20.2,2.02,0.2
03:37:00,2.3280,0.2054,2.9456,1.0525,95.36,94.47,201.0,0.48,4.0,0.02,0.2,20.1,2.01,0.19
03:37:30,2.3480,0.2086,2.9496,1.0543,95.49,94.63,199.0,0.49,4.1,0.02,0.2,19.9,1.99,0.2
03:38:00,2.3490,0.2074,2.9538,1.0560,95.62,94.79,200.0,0.49,4.1,0.02,0.2,20.0,2.0,0.2
03:38:30,2.3280,0.2041,2.9578,1.0577,95.75,94.94,198.0,0.48,4.0,0.02,0.2,19.8,1.98,0.2
03:39:00,2.3310,0.2247,2.9619,1.0595,95.88,95.10,196.0,0.52,4.3,0.02,0.2,19.6,1.96,0.21
03:39:30,2.3420,0.2014,2.9660,1.0612,96.02,95.25,193.5,0.47,3.9,0.02,0.2,19.4,1.935,0.2
03:40:00,2.3280,0.1993,2.9699,1.0629,96.14,95.40,190.5,0.46,3.8,0.02,0.2,19.1,1.905,0.19
03:40:30,2.3450,0.1993,2.9739,1.0647,96.27,95.56,188.0,0.47,3.9,0.02,0.2,18.8,1.88,0.2
03:41:00,2.3270,0.2039,2.9781,1.0664,96.41,95.72,191.0,0.47,3.9,0.02,0.2,19.1,1.91,0.2
03:41:30,2.3410,0.1967,2.9819,1.0681,96.53,95.87,184.0,0.46,3.8,0.02,0.2,18.4,1.84,0.2
03:42:00,2.3310,0.1925,2.9857,1.0697,96.65,96.01,175.4,0.45,3.8,0.02,0.2,17.5,1.754,0.21
03:42:30,2.3260,0.1921,2.9894,1.0713,96.77,96.16,176.1,0.45,3.8,0.02,0.2,17.6,1.761,0.21
03:43:00,2.3410,0.2010,2.9933,1.0730,96.90,96.31,173.6,0.47,3.9,0.02,0.2,17.4,1.736,0.22
03:43:30,2.3310,0.2090,2.9971,1.0746,97.02,96.45,167.1,0.49,4.1,0.02,0.2,16.7,1.671,0.24
03:44:00,2.3300,0.1984,3.0008,1.0762,97.14,96.60,168.9,0.46,3.8,0.02,0.2,16.9,1.689,0.22
03:44:30,2.3240,0.1837,3.0044,1.0777,97.26,96.73,169.4,0.43,3.6,0.01,0.1,16.9,1.694,0.2
03:45:00,2.3220,0.1739,3.0079,1.0792,97.37,96.87,155.2,0.4,3.3,0.01,0.1,15.5,1.552,0.21
03:45:30,2.3140,0.1564,3.0110,1.0806,97.47,96.99,128.2,0.36,3.0,0.01,0.1,12.8,1.282,0.23
03:46:00,2.3160,0.1758,3.0142,1.0820,97.58,97.11,116.4,0.41,3.4,0.01,0.1,11.6,1.164,0.28
03:46:30,2.3210,0.1528,3.0172,1.0832,97.67,97.23,114.7,0.35,2.9,0.01,0.1,11.5,1.147,0.25
03:47:00,2.3330,0.1555,3.0202,1.0845,97.77,97.35,108.6,0.36,3.0,0.01,0.1,10.9,1.086,0.27
03:47:30,2.3220,0.1509,3.0232,1.0858,97.87,97.46,107.9,0.35,2.9,0.01,0.1,10.8,1.079,0.26
03:48:00,2.3360,0.1580,3.0262,1.0871,97.97,97.58,111.2,0.37,3.1,0.01,0.1,11.1,1.112,0.27
03:48:30,2.3260,0.1502,3.0292,1.0884,98.06,97.69,111.8,0.35,2.9,0.01,0.1,11.2,1.118,0.25
03:49:00,2.3200,0.1465,3.0322,1.0897,98.16,97.81,106.6,0.34,2.8,0.01,0.1,10.7,1.066,0.26
03:49:30,2.3220,0.1514,3.0351,1.0909,98.25,97.92,106.1,0.35,2.9,0.01,0.1,10.6,1.061,0.27
03:50:00,2.3210,0.1490,3.0381,1.0923,98.35,98.04,121.1,0.35,2.9,0.01,0.1,12.1,1.211,0.23
03:50:30,2.3210,0.1364,3.0409,1.0934,98.44,98.14,109.7,0.32,2.7,0.01,0.1,11.0,1.097,0.24
03:51:00,2.3210,0.1474,3.0436,1.0946,98.53,98.25,100.4,0.34,2.8,0.01,0.1,10.0,1.004,0.27
03:51:30,2.3410,0.1550,3.0463,1.0958,98.62,98.35,107.2,0.36,3.0,0.01,0.1,10.7,1.072,0.27
03:52:00,2.3230,0.1318,3.0490,1.0969,98.70,98.46,99.8,0.31,2.6,0.01,0.1,10.0,0.998,0.25
03:52:30,2.3270,0.1504,3.0518,1.0981,98.79,98.56,100.5,0.35,2.9,0.01,0.1,10.1,1.005,0.28
03:53:00,2.3220,0.1310,3.0543,1.0992,98.88,98.66,92.5,0.3,2.5,0.01,0.1,9.3,0.925,0.26
03:53:30,2.3310,0.1351,3.0569,1.1003,98.96,98.76,89.9,0.31,2.6,0.01,0.1,9.0,0.899,0.28
03:54:00,2.3320,0.1281,3.0595,1.1014,99.04,98.86,84.4,0.3,2.5,0.01,0.1,8.4,0.844,0.29
03:54:30,2.3240,0.1275,3.0620,1.1025,99.12,98.96,80.7,0.3,2.5,0.01,0.1,8.1,0.807,0.3
03:55:00,2.3250,0.1259,3.0645,1.1036,99.20,99.05,74.6,0.29,2.4,0.01,0.1,7.5,0.746,0.31
03:55:30,2.3240,0.1253,3.0670,1.1047,99.29,99.15,75.5,0.29,2.4,0.01,0.1,7.6,0.755,0.31
03:56:00,2.3300,0.1253,3.0694,1.1057,99.37,99.24,73.5,0.29,2.4,0.01,0.1,7.4,0.735,0.32
03:56:30,2.3250,0.1291,3.0719,1.1068,99.45,99.34,73.8,0.3,2.5,0.01,0.1,7.4,0.738,0.33
03:57:00,2.3250,0.1254,3.0743,1.1078,99.52,99.43,71.8,0.29,2.4,0.01,0.1,7.2,0.718,0.33
03:57:30,2.3250,0.1275,3.0767,1.1088,99.60,99.53,71.2,0.3,2.5,0.01,0.1,7.1,0.712,0.34
03:58:00,2.3390,0.1247,3.0792,1.1099,99.68,99.62,71.9,0.29,2.4,0.01,0.1,7.2,0.719,0.33
03:58:30,2.3300,0.1248,3.0817,1.1110,99.76,99.72,72.6,0.29,2.4,0.01,0.1,7.3,0.726,0.32
03:59:00,2.3350,0.1231,3.0842,1.1120,99.84,99.81,72.4,0.29,2.4,0.01,0.1,7.2,0.724,0.32
03:59:30,2.3310,0.1229,3.0866,1.1131,99.92,99.91,71.9,0.29,2.4,0.01,0.1,7.2,0.719,0.33
04:00:00,2.3260,0.1229,3.0890,1.1141,100.00,100.00,71.6,0.29,2.4,0.01,0.1,7.2,0.716,0.33
04:00:10,2.3270,0.1207,3.0898,1.1145,100.03,100.03,70.1,0.28,2.3,0.01,0.1,7.0,0.701,0.32