File: output/5/gznomad7-1.csv
Time,Voltage(V),Current(A),Energy(Wh),Capacity(Ah),Energy Proportion(%),Capacity Proportion(%),Irradiance(W/m2),Power(W),Sunlight Level
00:00:00,4.8540,0.2769,0.0037,0.0008,0.53,0.27,737.0,1.34,7.37
00:00:10,4.5270,0.2948,0.0074,0.0016,1.06,0.56,738.0,1.33,7.38
00:00:20,3.0490,0.4178,0.0110,0.0027,1.57,0.96,732.0,1.27,7.32
00:00:30,4.6760,0.0091,0.0111,0.0028,1.58,0.97,731.0,0.04,7.31
00:00:40,2.9110,0.3999,0.0143,0.0039,2.04,1.36,735.0,1.16,7.35
00:00:50,2.6350,0.3351,0.0168,0.0048,2.39,1.69,737.0,0.88,7.37
00:01:00,4.0110,0.4255,0.0215,0.0060,3.07,2.10,737.0,1.71,7.37
00:01:10,0.3850,0.0000,0.0215,0.0060,3.07,2.10,737.0,0.0,7.37
00:01:20,3.1040,0.3978,0.0250,0.0071,3.56,2.49,737.0,1.23,7.37
00:01:30,2.7190,0.3506,0.0276,0.0081,3.94,2.83,735.0,0.95,7.35
00:01:40,2.5310,0.3205,0.0299,0.0090,4.26,3.15,735.0,0.81,7.35
00:01:50,1.5250,0.1206,0.0304,0.0093,4.33,3.26,734.0,0.18,7.34
00:02:00,3.0740,0.3566,0.0334,0.0103,4.76,3.61,735.0,1.1,7.35
00:02:10,3.0540,0.3566,0.0364,0.0113,5.20,3.96,732.0,1.09,7.32
00:02:20,2.6830,0.3178,0.0388,0.0122,5.53,4.27,733.0,0.85,7.33
00:02:30,2.4970,0.2758,0.0407,0.0129,5.81,4.54,734.0,0.69,7.34
00:02:40,2.4090,0.2397,0.0423,0.0136,6.03,4.77,736.0,0.58,7.36
00:02:50,2.3710,0.2182,0.0438,0.0142,6.24,4.98,731.0,0.52,7.31
00:03:00,2.3480,0.1946,0.0450,0.0147,6.42,5.17,731.0,0.46,7.31
00:03:10,2.3380,0.1975,0.0463,0.0153,6.60,5.36,727.0,0.46,7.27
00:03:20,2.3350,0.1921,0.0476,0.0158,6.78,5.55,725.0,0.45,7.25
00:03:30,2.3390,0.1983,0.0488,0.0164,6.96,5.74,707.0,0.46,7.07
00:03:40,2.3360,0.1791,0.0500,0.0169,7.13,5.92,718.0,0.42,7.18
00:03:50,2.3360,0.1959,0.0513,0.0174,7.31,6.11,710.0,0.46,7.1
00:04:00,2.3380,0.1908,0.0525,0.0179,7.49,6.30,713.0,0.45,7.13
00:04:10,2.3380,0.1903,0.0538,0.0185,7.66,6.48,722.0,0.44,7.22
00:04:20,2.3430,0.1927,0.0550,0.0190,7.84,6.67,720.0,0.45,7.2
00:04:30,2.3410,0.1957,0.0563,0.0196,8.02,6.86,718.0,0.46,7.18
00:04:40,2.3420,0.1905,0.0575,0.0201,8.20,7.05,724.0,0.45,7.24
00:04:50,2.3370,0.1970,0.0588,0.0206,8.38,7.24,729.0,0.46,7.29
00:05:00,2.3370,0.1809,0.0600,0.0211,8.55,7.41,734.0,0.42,7.34
00:05:10,2.3410,0.1913,0.0612,0.0217,8.73,7.60,735.0,0.45,7.35
00:05:20,2.3440,0.1943,0.0625,0.0222,8.91,7.79,741.0,0.46,7.41
00:05:30,2.3420,0.1953,0.0638,0.0227,9.09,7.98,742.0,0.46,7.42
00:05:40,2.3410,0.1922,0.0650,0.0233,9.27,8.17,746.0,0.45,7.46
00:05:50,2.3430,0.1939,0.0663,0.0238,9.45,8.36,746.0,0.45,7.46
00:06:00,2.3430,0.1962,0.0675,0.0244,9.63,8.55,746.0,0.46,7.46
00:06:10,2.3430,0.1949,0.0688,0.0249,9.81,8.74,741.0,0.46,7.41
00:06:20,2.3440,0.1987,0.0701,0.0255,10.00,8.93,746.0,0.47,7.46
00:06:30,2.3440,0.1983,0.0714,0.0260,10.18,9.12,747.0,0.46,7.47
00:06:40,2.3430,0.1889,0.0726,0.0265,10.35,9.31,748.0,0.44,7.48
00:06:50,2.3480,0.1886,0.0739,0.0271,10.53,9.49,745.0,0.44,7.45
00:07:00,2.3500,0.1976,0.0751,0.0276,10.71,9.68,753.0,0.46,7.53
00:07:10,2.3450,0.1925,0.0764,0.0281,10.89,9.87,747.0,0.45,7.47
00:07:20,2.3480,0.1930,0.0777,0.0287,11.07,10.06,753.0,0.45,7.53
00:07:30,2.3390,0.1859,0.0789,0.0292,11.24,10.24,748.0,0.43,7.48
00:07:40,2.3430,0.1724,0.0800,0.0297,11.40,10.41,750.0,0.4,7.5
00:07:50,2.3450,0.1841,0.0812,0.0302,11.58,10.59,751.0,0.43,7.51
00:08:00,5.1380,0.0094,0.0813,0.0302,11.59,10.60,748.0,0.05,7.48
00:08:10,3.0560,0.3603,0.0844,0.0312,12.03,10.95,752.0,1.1,7.52
00:08:20,3.0810,0.3594,0.0875,0.0322,12.47,11.30,749.0,1.11,7.49
00:08:30,2.7460,0.3089,0.0898,0.0331,12.81,11.60,749.0,0.85,7.49
00:08:40,2.4990,0.2540,0.0916,0.0338,13.06,11.85,749.0,0.63,7.49
00:08:50,2.3930,0.2109,0.0930,0.0344,13.26,12.05,750.0,0.5,7.5
00:09:00,2.3640,0.1914,0.0942,0.0349,13.44,12.24,754.0,0.45,7.54
00:09:10,2.3480,0.1941,0.0955,0.0354,13.62,12.43,752.0,0.46,7.52
00:09:20,2.3340,0.1756,0.0966,0.0359,13.78,12.60,752.0,0.41,7.52
00:09:30,2.3320,0.1857,0.0978,0.0364,13.95,12.78,752.0,0.43,7.52
00:09:40,2.3330,0.1758,0.0990,0.0369,14.11,12.95,753.0,0.41,7.53
00:09:50,2.3340,0.1749,0.1001,0.0374,14.27,13.12,752.0,0.41,7.52
00:10:00,2.3360,0.1795,0.1013,0.0379,14.44,13.30,754.0,0.42,7.54
00:10:10,2.3340,0.1751,0.1024,0.0384,14.60,13.47,750.0,0.41,7.5
00:10:20,2.3540,0.1927,0.1037,0.0389,14.78,13.66,749.0,0.45,7.49
00:10:30,2.3350,0.1715,0.1048,0.0394,14.94,13.82,750.0,0.4,7.5
00:10:40,2.3410,0.1733,0.1059,0.0399,15.10,13.99,745.0,0.41,7.45
00:10:50,2.3400,0.1897,0.1071,0.0404,15.28,14.18,745.0,0.44,7.45
00:11:00,2.3360,0.1713,0.1083,0.0409,15.44,14.34,738.0,0.4,7.38
00:11:10,2.3340,0.1694,0.1094,0.0414,15.59,14.51,741.0,0.4,7.41
00:11:20,2.3360,0.1712,0.1105,0.0418,15.75,14.67,743.0,0.4,7.43
00:11:30,2.3370,0.1713,0.1116,0.0423,15.91,14.84,740.0,0.4,7.4
00:11:40,2.3510,0.1897,0.1128,0.0428,16.09,15.03,740.0,0.45,7.4
00:11:50,2.3430,0.1684,0.1139,0.0433,16.24,15.19,740.0,0.39,7.4
00:12:00,2.3530,0.1858,0.1151,0.0438,16.42,15.37,743.0,0.44,7.43
00:12:10,2.3370,0.1687,0.1162,0.0443,16.57,15.54,744.0,0.39,7.44
00:12:20,2.3440,0.1895,0.1175,0.0448,16.75,15.72,746.0,0.44,7.46
00:12:30,2.3380,0.1717,0.1186,0.0453,16.91,15.89,748.0,0.4,7.48
00:12:40,2.3370,0.1706,0.1197,0.0458,17.06,16.05,746.0,0.4,7.46
00:12:50,2.3480,0.1705,0.1208,0.0462,17.22,16.22,751.0,0.4,7.51
00:13:00,2.3630,0.1978,0.1221,0.0468,17.41,16.41,749.0,0.47,7.49
00:13:10,2.3450,0.1767,0.1232,0.0473,17.57,16.59,750.0,0.41,7.5
00:13:20,2.3430,0.1784,0.1244,0.0478,17.74,16.76,749.0,0.42,7.49
00:13:30,2.3500,0.1987,0.1257,0.0483,17.92,16.95,749.0,0.47,7.49
00:13:40,2.3540,0.1773,0.1269,0.0488,18.09,17.13,744.0,0.42,7.44
00:13:50,2.3440,0.1750,0.1280,0.0493,18.25,17.30,742.0,0.41,7.42
00:14:00,2.3430,0.1902,0.1292,0.0498,18.43,17.48,742.0,0.45,7.42
00:14:10,2.3450,0.1780,0.1304,0.0503,18.59,17.65,747.0,0.42,7.47
00:14:20,2.3430,0.1753,0.1315,0.0508,18.75,17.83,750.0,0.41,7.5
00:14:30,2.3440,0.1754,0.1327,0.0513,18.92,18.00,750.0,0.41,7.5
00:14:40,2.3440,0.1799,0.1338,0.0518,19.08,18.17,751.0,0.42,7.51
00:14:50,2.3450,0.1792,0.1350,0.0523,19.25,18.35,756.0,0.42,7.56
00:15:00,2.3430,0.1790,0.1362,0.0528,19.42,18.52,759.0,0.42,7.59
00:15:10,2.3630,0.2000,0.1375,0.0534,19.60,18.72,764.0,0.47,7.64
00:15:20,2.3430,0.1777,0.1387,0.0538,19.77,18.89,768.0,0.42,7.68
00:15:30,2.3440,0.1809,0.1398,0.0544,19.94,19.06,768.0,0.42,7.68
00:15:40,2.3480,0.1811,0.1410,0.0549,20.11,19.24,775.0,0.43,7.75
00:15:50,2.3480,0.1802,0.1422,0.0554,20.27,19.42,777.0,0.42,7.77
00:16:00,2.3430,0.1826,0.1434,0.0559,20.44,19.59,780.0,0.43,7.8
00:16:10,2.3430,0.1806,0.1445,0.0564,20.61,19.77,782.0,0.42,7.82
00:16:20,2.3480,0.1999,0.1459,0.0569,20.80,19.97,786.0,0.47,7.86
00:16:30,2.3440,0.1804,0.1470,0.0574,20.96,20.14,787.0,0.42,7.87
00:16:40,2.3480,0.2032,0.1484,0.0580,21.15,20.34,788.0,0.48,7.88
00:16:50,5.1390,0.0095,0.1485,0.0580,21.17,20.35,786.0,0.05,7.86
00:17:00,3.5150,0.4725,0.1531,0.0593,21.83,20.81,788.0,1.66,7.88
00:17:10,3.5270,0.4752,0.1578,0.0606,22.49,21.27,791.0,1.68,7.91
00:17:20,3.0920,0.4057,0.1612,0.0618,22.99,21.67,792.0,1.25,7.92
00:17:30,3.0460,0.4002,0.1646,0.0629,23.47,22.06,794.0,1.22,7.94
00:17:40,3.0220,0.3910,0.1679,0.0640,23.94,22.44,792.0,1.18,7.92
00:17:50,3.0510,0.4045,0.1713,0.0651,24.43,22.83,797.0,1.23,7.97
00:18:00,2.6470,0.3265,0.1737,0.0660,24.77,23.15,798.0,0.86,7.98
00:18:10,2.4640,0.2599,0.1755,0.0667,25.03,23.40,800.0,0.64,8.0
00:18:20,2.4000,0.2369,0.1771,0.0674,25.25,23.63,803.0,0.57,8.03
00:18:30,2.3720,0.2079,0.1785,0.0680,25.45,23.84,805.0,0.49,8.05
00:18:40,2.3560,0.2099,0.1798,0.0685,25.64,24.04,805.0,0.49,8.05
00:18:50,0.2180,0.0000,0.1798,0.0685,25.64,24.04,807.0,0.0,8.07
00:19:00,3.5000,0.4789,0.1845,0.0699,26.31,24.51,809.0,1.68,8.09
00:19:10,3.1050,0.4243,0.1882,0.0710,26.83,24.92,807.0,1.32,8.07
00:19:20,3.0510,0.4193,0.1917,0.0722,27.33,25.33,814.0,1.28,8.14
00:19:30,2.7080,0.3396,0.1943,0.0732,27.70,25.66,811.0,0.92,8.11
00:19:40,2.5110,0.2991,0.1964,0.0740,28.00,25.95,813.0,0.75,8.13
00:19:50,2.4060,0.2453,0.1980,0.0747,28.23,26.19,814.0,0.59,8.14
00:20:00,2.3790,0.2306,0.1995,0.0753,28.45,26.42,816.0,0.55,8.16
00:20:10,2.3650,0.2059,0.2009,0.0759,28.64,26.62,818.0,0.49,8.18
00:20:20,2.3450,0.1948,0.2021,0.0764,28.82,26.81,814.0,0.46,8.14
00:20:30,2.3450,0.1873,0.2034,0.0769,28.99,26.99,818.0,0.44,8.18
00:20:40,2.3480,0.1920,0.2046,0.0775,29.17,27.18,817.0,0.45,8.17
00:20:50,2.3510,0.1881,0.2058,0.0780,29.35,27.36,817.0,0.44,8.17
00:21:00,2.3470,0.1855,0.2070,0.0785,29.52,27.54,814.0,0.44,8.14
00:21:10,2.3560,0.1935,0.2083,0.0791,29.70,27.73,812.0,0.46,8.12
00:21:20,2.3610,0.2084,0.2097,0.0796,29.90,27.93,813.0,0.49,8.13
00:21:30,2.3610,0.1953,0.2110,0.0802,30.08,28.12,811.0,0.46,8.11
00:21:40,2.3570,0.1945,0.2122,0.0807,30.26,28.31,813.0,0.46,8.13
00:21:50,2.3600,0.1899,0.2135,0.0812,30.44,28.50,809.0,0.45,8.09
00:22:00,2.3620,0.2035,0.2148,0.0818,30.63,28.69,806.0,0.48,8.06
00:22:10,2.3620,0.1927,0.2161,0.0823,30.81,28.88,807.0,0.46,8.07
00:22:20,2.3630,0.1879,0.2173,0.0829,30.98,29.07,808.0,0.44,8.08
00:22:30,2.3620,0.1926,0.2186,0.0834,31.16,29.25,804.0,0.45,8.04
00:22:40,2.3660,0.1871,0.2198,0.0839,31.34,29.44,803.0,0.44,8.03
00:22:50,2.3690,0.1924,0.2211,0.0845,31.52,29.62,802.0,0.46,8.02
00:23:00,2.3700,0.1871,0.2223,0.0850,31.70,29.81,802.0,0.44,8.02
00:23:10,2.3680,0.1917,0.2236,0.0855,31.88,29.99,802.0,0.45,8.02
00:23:20,2.3620,0.1887,0.2248,0.0860,32.05,30.18,799.0,0.45,7.99
00:23:30,2.3730,0.2028,0.2261,0.0866,32.24,30.37,797.0,0.48,7.97
00:23:40,2.3640,0.1852,0.2274,0.0871,32.42,30.55,791.0,0.44,7.91
00:23:50,2.3670,0.1904,0.2286,0.0876,32.60,30.74,791.0,0.45,7.91
00:24:00,2.3670,0.1855,0.2298,0.0882,32.77,30.92,793.0,0.44,7.93
00:24:10,2.3680,0.2026,0.2312,0.0887,32.96,31.12,791.0,0.48,7.91
00:24:20,2.3690,0.1821,0.2324,0.0892,33.13,31.30,792.0,0.43,7.92
00:24:30,2.3660,0.1918,0.2336,0.0898,33.31,31.48,792.0,0.45,7.92
00:24:40,2.3650,0.1922,0.2349,0.0903,33.49,31.67,790.0,0.45,7.9
00:24:50,2.3690,0.1954,0.2362,0.0908,33.67,31.86,789.0,0.46,7.89
00:25:00,2.3640,0.1865,0.2374,0.0913,33.85,32.04,785.0,0.44,7.85
00:25:10,2.3610,0.1812,0.2386,0.0919,34.02,32.22,783.0,0.43,7.83
00:25:20,2.3570,0.1798,0.2398,0.0923,34.18,32.39,785.0,0.42,7.85
00:25:30,2.3670,0.1821,0.2410,0.0929,34.36,32.57,782.0,0.43,7.82
00:25:40,2.3630,0.1819,0.2421,0.0934,34.53,32.75,782.0,0.43,7.82
00:25:50,2.3590,0.1822,0.2433,0.0939,34.70,32.93,778.0,0.43,7.78
00:26:00,2.3610,0.1805,0.2445,0.0944,34.86,33.10,775.0,0.43,7.75
00:26:10,2.3560,0.1880,0.2458,0.0949,35.04,33.28,772.0,0.44,7.72
00:26:20,2.3630,0.1911,0.2470,0.0954,35.22,33.47,771.0,0.45,7.71
00:26:30,2.3620,0.1871,0.2482,0.0959,35.39,33.65,773.0,0.44,7.73
00:26:40,2.3670,0.1800,0.2494,0.0964,35.56,33.83,772.0,0.43,7.72
00:26:50,2.3660,0.1789,0.2506,0.0969,35.73,34.00,774.0,0.42,7.74
00:27:00,2.3630,0.1812,0.2518,0.0974,35.90,34.18,779.0,0.43,7.79
00:27:10,2.3640,0.1796,0.2530,0.0979,36.07,34.35,781.0,0.42,7.81
00:27:20,2.3660,0.1812,0.2542,0.0984,36.24,34.53,778.0,0.43,7.78
00:27:30,2.3680,0.1786,0.2553,0.0989,36.41,34.70,779.0,0.42,7.79
00:27:40,2.3770,0.1988,0.2566,0.0995,36.59,34.90,778.0,0.47,7.78
00:27:50,2.3700,0.1883,0.2579,0.1000,36.77,35.08,783.0,0.45,7.83
00:28:00,2.3660,0.1815,0.2591,0.1005,36.94,35.26,787.0,0.43,7.87
00:28:10,2.3590,0.1596,0.2601,0.1010,37.09,35.41,687.0,0.38,6.87
00:28:20,2.3560,0.1712,0.2612,0.1014,37.25,35.58,611.0,0.4,6.11
00:28:30,2.3720,0.1751,0.2624,0.1019,37.41,35.75,776.0,0.42,7.76
00:28:40,2.3540,0.1700,0.2635,0.1024,37.57,35.92,747.0,0.4,7.47
00:28:50,2.3560,0.1574,0.2645,0.1028,37.72,36.07,693.0,0.37,6.93
00:29:00,2.3700,0.1702,0.2657,0.1033,37.88,36.24,688.0,0.4,6.88
00:29:10,2.3440,0.1269,0.2665,0.1037,38.00,36.36,553.0,0.3,5.53
00:29:20,2.3250,0.0845,0.2670,0.1039,38.07,36.44,244.0,0.2,2.44
00:29:30,2.3200,0.0755,0.2675,0.1041,38.14,36.52,156.5,0.18,1.565
00:29:40,2.3140,0.0705,0.2680,0.1043,38.21,36.58,112.4,0.16,1.124
00:29:50,2.3240,0.0874,0.2685,0.1045,38.29,36.67,148.9,0.2,1.489
00:30:00,2.3440,0.1443,0.2695,0.1049,38.42,36.81,312.0,0.34,3.12
00:30:10,2.3670,0.1913,0.2707,0.1055,38.60,37.00,782.0,0.45,7.82
00:30:20,2.3660,0.1807,0.2719,0.1060,38.77,37.17,776.0,0.43,7.76
00:30:30,2.3630,0.1930,0.2732,0.1065,38.95,37.36,771.0,0.46,7.71
00:30:40,2.3580,0.1686,0.2743,0.1070,39.11,37.53,712.0,0.4,7.12
00:30:50,2.3310,0.1031,0.2750,0.1073,39.20,37.63,334.0,0.24,3.34
00:31:00,2.3430,0.1438,0.2759,0.1077,39.34,37.77,363.0,0.34,3.63
00:31:10,2.3570,0.1515,0.2769,0.1081,39.48,37.91,503.0,0.36,5.03
00:31:20,2.3710,0.1772,0.2781,0.1086,39.65,38.09,732.0,0.42,7.32
00:31:30,2.3590,0.1778,0.2792,0.1091,39.81,38.26,754.0,0.42,7.54
00:31:40,2.3580,0.1864,0.2804,0.1096,39.99,38.44,764.0,0.44,7.64
00:31:50,2.3630,0.1787,0.2816,0.1101,40.15,38.62,767.0,0.42,7.67
00:32:00,2.3550,0.1855,0.2828,0.1106,40.33,38.80,774.0,0.44,7.74
00:32:10,2.3660,0.1971,0.2841,0.1112,40.51,38.99,778.0,0.47,7.78
00:32:20,2.3560,0.1967,0.2854,0.1117,40.69,39.18,777.0,0.46,7.77
00:32:30,2.3600,0.1798,0.2866,0.1122,40.86,39.35,777.0,0.42,7.77
00:32:40,2.3580,0.1815,0.2878,0.1127,41.03,39.53,780.0,0.43,7.8
00:32:50,2.3570,0.1800,0.2890,0.1132,41.20,39.71,780.0,0.42,7.8
00:33:00,2.3630,0.1986,0.2903,0.1138,41.39,39.90,779.0,0.47,7.79
00:33:10,2.3670,0.1814,0.2915,0.1143,41.56,40.08,779.0,0.43,7.79
00:33:20,2.3600,0.1801,0.2926,0.1148,41.72,40.25,777.0,0.43,7.77
00:33:30,2.3640,0.1977,0.2939,0.1153,41.91,40.45,778.0,0.47,7.78
00:33:40,2.3720,0.1752,0.2951,0.1158,42.07,40.62,777.0,0.42,7.77
00:33:50,2.3630,0.1839,0.2963,0.1163,42.25,40.80,777.0,0.43,7.77
00:34:00,2.3600,0.1788,0.2975,0.1168,42.41,40.97,774.0,0.42,7.74
00:34:10,2.3600,0.1934,0.2987,0.1173,42.59,41.16,775.0,0.46,7.75
00:34:20,2.3570,0.1872,0.3000,0.1179,42.77,41.34,772.0,0.44,7.72
00:34:30,2.3710,0.1978,0.3013,0.1184,42.95,41.53,772.0,0.47,7.72
00:34:40,2.3630,0.1991,0.3026,0.1190,43.14,41.73,774.0,0.47,7.74
00:34:50,2.3590,0.1840,0.3038,0.1195,43.31,41.91,773.0,0.43,7.73
00:35:00,2.3560,0.1790,0.3049,0.1200,43.48,42.08,769.0,0.42,7.69
00:35:10,2.3560,0.1780,0.3061,0.1205,43.65,42.25,771.0,0.42,7.71
00:35:20,2.3570,0.1883,0.3073,0.1210,43.82,42.44,772.0,0.44,7.72
00:35:30,2.3630,0.1832,0.3085,0.1215,43.99,42.62,775.0,0.43,7.75
00:35:40,2.3670,0.1948,0.3098,0.1220,44.18,42.81,776.0,0.46,7.76
00:35:50,2.3690,0.1969,0.3111,0.1226,44.36,43.00,778.0,0.47,7.78
00:36:00,2.3540,0.1804,0.3123,0.1231,44.53,43.17,778.0,0.42,7.78
00:36:10,2.3520,0.1813,0.3135,0.1236,44.70,43.35,779.0,0.43,7.79
00:36:20,2.3540,0.1810,0.3147,0.1241,44.87,43.53,782.0,0.43,7.82
00:36:30,2.3630,0.1809,0.3159,0.1246,45.04,43.70,785.0,0.43,7.85
00:36:40,2.3660,0.1854,0.3171,0.1251,45.21,43.88,785.0,0.44,7.85
00:36:50,2.3550,0.1818,0.3183,0.1256,45.38,44.06,790.0,0.43,7.9
00:37:00,2.3530,0.1809,0.3194,0.1261,45.55,44.24,790.0,0.43,7.9
00:37:10,2.3620,0.1759,0.3206,0.1266,45.71,44.41,789.0,0.42,7.89
00:37:20,2.3600,0.1790,0.3218,0.1271,45.88,44.58,787.0,0.42,7.87
00:37:30,2.3560,0.1816,0.3230,0.1276,46.05,44.76,788.0,0.43,7.88
00:37:40,2.3570,0.1865,0.3242,0.1281,46.22,44.94,787.0,0.44,7.87
00:37:50,2.3560,0.1809,0.3254,0.1286,46.39,45.12,787.0,0.43,7.87
00:38:00,2.3580,0.1964,0.3267,0.1292,46.57,45.31,775.0,0.46,7.75
00:38:10,2.3670,0.1720,0.3278,0.1296,46.74,45.48,772.0,0.41,7.72
00:38:20,2.3590,0.1934,0.3291,0.1302,46.92,45.67,778.0,0.46,7.78
00:38:30,2.3520,0.1863,0.3303,0.1307,47.09,45.85,777.0,0.44,7.77
00:38:40,2.3620,0.1985,0.3316,0.1313,47.28,46.04,776.0,0.47,7.76
00:38:50,2.3550,0.1768,0.3327,0.1317,47.44,46.21,777.0,0.42,7.77
00:39:00,2.3560,0.1876,0.3340,0.1323,47.62,46.40,776.0,0.44,7.76
00:39:10,2.3620,0.1952,0.3352,0.1328,47.80,46.59,773.0,0.46,7.73
00:39:20,2.3600,0.1943,0.3365,0.1333,47.98,46.77,767.0,0.46,7.67
00:39:30,2.3560,0.1765,0.3377,0.1338,48.14,46.95,770.0,0.42,7.7
00:39:40,2.3580,0.1971,0.3390,0.1344,48.33,47.14,775.0,0.46,7.75
00:39:50,2.3670,0.1976,0.3403,0.1349,48.51,47.33,784.0,0.47,7.84
00:40:00,2.3580,0.1740,0.3414,0.1354,48.68,47.50,784.0,0.41,7.84
00:40:10,2.3490,0.1831,0.3426,0.1359,48.85,47.68,782.0,0.43,7.82
00:40:20,2.3470,0.1693,0.3437,0.1364,49.00,47.84,654.0,0.4,6.54
00:40:30,2.3500,0.1494,0.3447,0.1368,49.14,47.99,629.0,0.35,6.29
00:40:40,2.3550,0.1667,0.3458,0.1373,49.30,48.15,690.0,0.39,6.9
00:40:50,2.3640,0.1925,0.3470,0.1378,49.48,48.34,745.0,0.46,7.45
00:41:00,2.3510,0.1707,0.3481,0.1383,49.64,48.51,753.0,0.4,7.53
00:41:10,2.3570,0.1934,0.3494,0.1388,49.82,48.69,758.0,0.46,7.58
00:41:20,2.3580,0.1754,0.3506,0.1393,49.98,48.87,769.0,0.41,7.69
00:41:30,2.3500,0.1927,0.3518,0.1398,50.16,49.05,767.0,0.45,7.67
00:41:40,2.3510,0.1750,0.3530,0.1403,50.32,49.22,768.0,0.41,7.68
00:41:50,2.3500,0.1943,0.3542,0.1409,50.51,49.41,770.0,0.46,7.7
00:42:00,2.3490,0.1954,0.3555,0.1414,50.69,49.60,775.0,0.46,7.75
00:42:10,2.3630,0.1838,0.3567,0.1419,50.86,49.78,781.0,0.43,7.81
00:42:20,2.3520,0.1777,0.3579,0.1424,51.02,49.96,785.0,0.42,7.85
00:42:30,2.3630,0.1739,0.3590,0.1429,51.19,50.12,787.0,0.41,7.87
00:42:40,2.3630,0.1986,0.3603,0.1435,51.37,50.32,789.0,0.47,7.89
00:42:50,2.3570,0.1940,0.3616,0.1440,51.55,50.51,784.0,0.46,7.84
00:43:00,2.3580,0.1977,0.3629,0.1445,51.74,50.70,787.0,0.47,7.87
00:43:10,2.3620,0.1778,0.3640,0.1450,51.91,50.87,786.0,0.42,7.86
00:43:20,2.3470,0.1983,0.3653,0.1456,52.09,51.07,784.0,0.47,7.84
00:43:30,2.3470,0.1784,0.3665,0.1461,52.26,51.24,784.0,0.42,7.84
00:43:40,2.3500,0.1774,0.3677,0.1466,52.42,51.41,786.0,0.42,7.86
00:43:50,2.3510,0.1928,0.3689,0.1471,52.60,51.60,785.0,0.45,7.85
00:44:00,2.3510,0.1770,0.3701,0.1476,52.77,51.77,781.0,0.42,7.81
00:44:10,2.3470,0.1795,0.3712,0.1481,52.93,51.95,779.0,0.42,7.79
00:44:20,2.3460,0.1799,0.3724,0.1486,53.10,52.12,779.0,0.42,7.79
00:44:30,2.3480,0.1838,0.3736,0.1491,53.27,52.30,780.0,0.43,7.8
00:44:40,2.3420,0.1914,0.3749,0.1496,53.45,52.49,776.0,0.45,7.76
00:44:50,2.3460,0.1827,0.3760,0.1501,53.62,52.67,778.0,0.43,7.78
00:45:00,2.3480,0.1834,0.3772,0.1507,53.79,52.85,777.0,0.43,7.77
00:45:10,2.3410,0.1923,0.3785,0.1512,53.97,53.03,775.0,0.45,7.75
00:45:20,2.3380,0.1734,0.3796,0.1517,54.13,53.20,777.0,0.41,7.77
00:45:30,2.3410,0.1797,0.3808,0.1522,54.29,53.38,778.0,0.42,7.78
00:45:40,2.3490,0.1941,0.3821,0.1527,54.47,53.57,777.0,0.46,7.77
00:45:50,2.3470,0.1850,0.3833,0.1532,54.65,53.75,782.0,0.43,7.82
00:46:00,2.3460,0.1842,0.3845,0.1537,54.82,53.93,781.0,0.43,7.81
00:46:10,2.3410,0.1885,0.3857,0.1543,54.99,54.11,781.0,0.44,7.81
00:46:20,2.3430,0.1741,0.3868,0.1547,55.15,54.28,782.0,0.41,7.82
00:46:30,2.3500,0.1830,0.3880,0.1553,55.32,54.46,787.0,0.43,7.87
00:46:40,2.3530,0.1838,0.3892,0.1558,55.50,54.64,786.0,0.43,7.86
00:46:50,2.3480,0.1769,0.3904,0.1563,55.66,54.81,788.0,0.42,7.88
00:47:00,2.3450,0.1786,0.3915,0.1568,55.83,54.98,788.0,0.42,7.88
00:47:10,2.3410,0.1773,0.3927,0.1572,55.99,55.16,791.0,0.42,7.91
00:47:20,2.3510,0.1879,0.3939,0.1578,56.16,55.34,791.0,0.44,7.91
00:47:30,2.3500,0.1903,0.3952,0.1583,56.34,55.52,793.0,0.45,7.93
00:47:40,2.3460,0.1957,0.3964,0.1588,56.52,55.72,789.0,0.46,7.89
00:47:50,2.3440,0.1876,0.3977,0.1594,56.70,55.90,789.0,0.44,7.89
00:48:00,2.3500,0.1802,0.3988,0.1599,56.87,56.07,789.0,0.42,7.89
00:48:10,2.3490,0.1778,0.4000,0.1604,57.03,56.25,788.0,0.42,7.88
00:48:20,2.3500,0.1894,0.4012,0.1609,57.21,56.43,785.0,0.45,7.85
00:48:30,2.3480,0.1775,0.4024,0.1614,57.37,56.60,787.0,0.42,7.87
00:48:40,2.3470,0.1766,0.4035,0.1619,57.54,56.78,786.0,0.41,7.86
00:48:50,2.3500,0.1852,0.4047,0.1624,57.71,56.96,784.0,0.44,7.84
00:49:00,2.3430,0.1772,0.4059,0.1629,57.87,57.13,783.0,0.42,7.83
00:49:10,2.3420,0.1819,0.4071,0.1634,58.04,57.31,780.0,0.43,7.8
00:49:20,2.3410,0.1794,0.4082,0.1639,58.21,57.48,773.0,0.42,7.73
00:49:30,2.3480,0.1870,0.4095,0.1644,58.38,57.66,773.0,0.44,7.73
00:49:40,2.3420,0.1792,0.4106,0.1649,58.55,57.84,772.0,0.42,7.72
00:49:50,2.3410,0.1739,0.4118,0.1654,58.71,58.01,774.0,0.41,7.74
00:50:00,2.3380,0.1651,0.4128,0.1658,58.86,58.17,710.0,0.39,7.1
00:50:10,2.3430,0.1735,0.4140,0.1663,59.02,58.34,767.0,0.41,7.67
00:50:20,2.3510,0.1780,0.4151,0.1668,59.19,58.51,773.0,0.42,7.73
00:50:30,2.3430,0.1671,0.4162,0.1673,59.34,58.67,759.0,0.39,7.59
00:50:40,2.3280,0.1359,0.4171,0.1677,59.47,58.81,589.0,0.32,5.89
00:50:50,2.3300,0.1267,0.4179,0.1680,59.59,58.93,480.0,0.3,4.8
00:51:00,2.3270,0.1395,0.4188,0.1684,59.72,59.07,500.0,0.32,5.0
00:51:10,2.3360,0.1560,0.4198,0.1688,59.86,59.22,596.0,0.36,5.96
00:51:20,2.3440,0.1693,0.4209,0.1693,60.02,59.38,717.0,0.4,7.17
00:51:30,2.3450,0.1753,0.4221,0.1698,60.18,59.55,769.0,0.41,7.69
00:51:40,2.3460,0.1880,0.4233,0.1703,60.35,59.74,783.0,0.44,7.83
00:51:50,2.3560,0.1931,0.4246,0.1708,60.53,59.92,786.0,0.45,7.86
00:52:00,2.3480,0.1823,0.4257,0.1713,60.70,60.10,789.0,0.43,7.89
00:52:10,2.3440,0.1787,0.4269,0.1718,60.87,60.28,795.0,0.42,7.95
00:52:20,2.3440,0.1806,0.4281,0.1723,61.04,60.45,794.0,0.42,7.94
00:52:30,2.3470,0.1943,0.4294,0.1729,61.22,60.64,797.0,0.46,7.97
00:52:40,2.3500,0.1922,0.4306,0.1734,61.40,60.83,798.0,0.45,7.98
00:52:50,2.3460,0.1944,0.4319,0.1740,61.58,61.02,799.0,0.46,7.99
00:53:00,2.3400,0.1789,0.4330,0.1745,61.74,61.19,800.0,0.42,8.0
00:53:10,2.3490,0.1990,0.4343,0.1750,61.93,61.39,803.0,0.47,8.03
00:53:20,2.3460,0.1889,0.4356,0.1755,62.10,61.57,803.0,0.44,8.03
00:53:30,2.3460,0.1961,0.4368,0.1761,62.29,61.76,805.0,0.46,8.05
00:53:40,2.3590,0.1986,0.4381,0.1766,62.47,61.96,800.0,0.47,8.0
00:53:50,2.3490,0.1939,0.4394,0.1772,62.65,62.14,797.0,0.46,7.97
00:54:00,2.3440,0.1810,0.4406,0.1777,62.82,62.32,797.0,0.42,7.97
00:54:10,2.3480,0.1817,0.4418,0.1782,62.99,62.50,795.0,0.43,7.95
00:54:20,2.3490,0.1853,0.4430,0.1787,63.16,62.68,797.0,0.44,7.97
00:54:30,2.3430,0.1758,0.4441,0.1792,63.32,62.85,797.0,0.41,7.97
00:54:40,2.3410,0.1908,0.4454,0.1797,63.50,63.04,793.0,0.45,7.93
00:54:50,2.3560,0.1872,0.4466,0.1802,63.68,63.22,791.0,0.44,7.91
00:55:00,2.3440,0.1761,0.4477,0.1807,63.84,63.39,794.0,0.41,7.94
00:55:10,2.3440,0.1926,0.4490,0.1813,64.02,63.58,793.0,0.45,7.93
00:55:20,2.3470,0.1837,0.4502,0.1818,64.19,63.76,790.0,0.43,7.9
00:55:30,2.3410,0.1793,0.4514,0.1823,64.36,63.93,792.0,0.42,7.92
00:55:40,2.3460,0.1869,0.4526,0.1828,64.53,64.11,789.0,0.44,7.89
00:55:50,2.3400,0.1735,0.4537,0.1833,64.69,64.28,789.0,0.41,7.89
00:56:00,2.3390,0.1807,0.4549,0.1838,64.86,64.46,791.0,0.42,7.91
00:56:10,2.3440,0.1834,0.4561,0.1843,65.03,64.64,791.0,0.43,7.91
00:56:20,2.3460,0.1847,0.4573,0.1848,65.20,64.82,791.0,0.43,7.91
00:56:30,2.3370,0.1768,0.4584,0.1853,65.36,64.99,789.0,0.41,7.89
00:56:40,2.3360,0.1845,0.4596,0.1858,65.53,65.17,794.0,0.43,7.94
00:56:50,2.3440,0.1845,0.4608,0.1863,65.71,65.35,792.0,0.43,7.92
00:57:00,2.3380,0.1798,0.4620,0.1868,65.87,65.52,795.0,0.42,7.95
00:57:10,2.3450,0.1953,0.4633,0.1873,66.05,65.71,795.0,0.46,7.95
00:57:20,2.3430,0.1782,0.4644,0.1878,66.22,65.89,794.0,0.42,7.94
00:57:30,2.3460,0.1970,0.4657,0.1884,66.40,66.08,795.0,0.46,7.95
00:57:40,2.3560,0.1974,0.4670,0.1889,66.59,66.27,796.0,0.47,7.96
00:57:50,2.3430,0.1858,0.4682,0.1894,66.76,66.45,796.0,0.44,7.96
00:58:00,2.3430,0.1900,0.4694,0.1900,66.93,66.64,798.0,0.45,7.98
00:58:10,2.3530,0.1842,0.4706,0.1905,67.11,66.82,799.0,0.43,7.99
00:58:20,2.3490,0.1975,0.4719,0.1910,67.29,67.01,797.0,0.46,7.97
00:58:30,2.3500,0.1937,0.4732,0.1916,67.47,67.20,796.0,0.46,7.96
00:58:40,2.3500,0.1816,0.4744,0.1921,67.64,67.38,797.0,0.43,7.97
00:58:50,2.3560,0.1945,0.4757,0.1926,67.82,67.57,795.0,0.46,7.95
00:59:00,2.3550,0.1791,0.4768,0.1931,67.99,67.74,795.0,0.42,7.95
00:59:10,2.3480,0.1784,0.4780,0.1936,68.15,67.91,795.0,0.42,7.95
00:59:20,2.3550,0.1804,0.4792,0.1941,68.32,68.09,793.0,0.42,7.93
00:59:30,2.3470,0.1923,0.4804,0.1946,68.50,68.28,793.0,0.45,7.93
00:59:40,2.3540,0.1973,0.4817,0.1952,68.68,68.47,794.0,0.46,7.94
00:59:50,2.3500,0.1941,0.4830,0.1957,68.87,68.66,794.0,0.46,7.94
01:00:00,2.3520,0.1802,0.4842,0.1962,69.03,68.83,794.0,0.42,7.94
01:00:10,2.3600,0.1962,0.4854,0.1968,69.22,69.02,794.0,0.46,7.94
01:00:20,2.3610,0.1987,0.4868,0.1973,69.40,69.22,793.0,0.47,7.93
01:00:30,2.3610,0.1761,0.4879,0.1978,69.57,69.39,792.0,0.42,7.92
01:00:40,2.3540,0.1869,0.4891,0.1983,69.74,69.57,796.0,0.44,7.96
01:00:50,2.3510,0.1744,0.4903,0.1988,69.90,69.74,796.0,0.41,7.96
01:01:00,2.3510,0.1968,0.4916,0.1994,70.09,69.93,795.0,0.46,7.95
01:01:10,2.3560,0.1765,0.4927,0.1999,70.25,70.11,794.0,0.42,7.94
01:01:20,2.3530,0.1797,0.4939,0.2004,70.42,70.28,795.0,0.42,7.95
01:01:30,2.3490,0.1810,0.4951,0.2009,70.59,70.46,796.0,0.43,7.96
01:01:40,2.3660,0.1996,0.4964,0.2014,70.77,70.65,797.0,0.47,7.97
01:01:50,2.3530,0.1979,0.4977,0.2020,70.96,70.84,797.0,0.47,7.97
01:02:00,2.3680,0.1756,0.4988,0.2025,71.12,71.02,798.0,0.42,7.98
01:02:10,2.3700,0.1820,0.5000,0.2030,71.29,71.19,798.0,0.43,7.98
01:02:20,2.3730,0.2003,0.5013,0.2035,71.48,71.39,797.0,0.48,7.97
01:02:30,2.3570,0.1821,0.5025,0.2040,71.65,71.57,797.0,0.43,7.97
01:02:40,2.3630,0.1837,0.5037,0.2045,71.82,71.74,797.0,0.43,7.97
01:02:50,2.3630,0.1856,0.5050,0.2051,72.00,71.93,796.0,0.44,7.96
01:03:00,2.3630,0.1865,0.5062,0.2056,72.17,72.11,797.0,0.44,7.97
01:03:10,2.3690,0.1867,0.5074,0.2061,72.35,72.29,798.0,0.44,7.98
01:03:20,2.3720,0.1902,0.5087,0.2066,72.53,72.47,798.0,0.45,7.98
01:03:30,2.3740,0.1999,0.5100,0.2072,72.71,72.67,796.0,0.47,7.96
01:03:40,2.3760,0.1979,0.5113,0.2077,72.90,72.86,796.0,0.47,7.96
01:03:50,2.3780,0.1968,0.5126,0.2083,73.09,73.05,795.0,0.47,7.95
01:04:00,2.3780,0.2033,0.5139,0.2088,73.28,73.25,793.0,0.48,7.93
01:04:10,2.3840,0.2175,0.5154,0.2094,73.48,73.46,795.0,0.52,7.95
01:04:20,2.3830,0.2041,0.5167,0.2100,73.68,73.66,793.0,0.49,7.93
01:04:30,2.3890,0.2030,0.5181,0.2106,73.87,73.86,793.0,0.48,7.93
01:04:40,2.3810,0.1953,0.5194,0.2111,74.05,74.05,792.0,0.47,7.92
01:04:50,2.3820,0.1956,0.5207,0.2117,74.24,74.24,790.0,0.47,7.9
01:05:00,2.3840,0.2049,0.5220,0.2122,74.43,74.44,793.0,0.49,7.93
01:05:10,2.3840,0.1970,0.5233,0.2128,74.62,74.63,792.0,0.47,7.92
01:05:20,2.3850,0.2058,0.5247,0.2133,74.81,74.83,793.0,0.49,7.93
01:05:30,2.3810,0.1982,0.5260,0.2139,75.00,75.03,793.0,0.47,7.93
01:05:40,2.3830,0.2029,0.5273,0.2145,75.19,75.22,794.0,0.48,7.94
01:05:50,2.3790,0.2066,0.5287,0.2150,75.38,75.43,793.0,0.49,7.93
01:06:00,2.3850,0.1942,0.5300,0.2156,75.57,75.61,797.0,0.46,7.97
01:06:10,2.3710,0.1993,0.5313,0.2161,75.75,75.81,798.0,0.47,7.98
01:06:20,2.3710,0.1960,0.5326,0.2167,75.94,76.00,796.0,0.46,7.96
01:06:30,2.3710,0.2023,0.5339,0.2172,76.13,76.20,798.0,0.48,7.98
01:06:40,2.3780,0.2129,0.5353,0.2178,76.33,76.40,797.0,0.51,7.97
01:06:50,2.3700,0.1928,0.5366,0.2184,76.51,76.59,801.0,0.46,8.01
01:07:00,2.3660,0.1956,0.5379,0.2189,76.69,76.78,802.0,0.46,8.02
01:07:10,2.3690,0.1974,0.5392,0.2194,76.88,76.98,798.0,0.47,7.98
01:07:20,2.3680,0.1909,0.5404,0.2200,77.06,77.16,802.0,0.45,8.02
01:07:30,2.3730,0.1987,0.5417,0.2205,77.24,77.35,800.0,0.47,8.0
01:07:40,0.0000,0.0000,0.5417,0.2205,77.24,77.35,798.0,0.0,7.98
01:07:50,4.6270,0.0093,0.5419,0.2206,77.26,77.36,799.0,0.04,7.99
01:08:00,3.4270,0.5287,0.5469,0.2220,77.98,77.88,798.0,1.81,7.98
01:08:10,5.0460,0.0092,0.5470,0.2220,78.00,77.89,794.0,0.05,7.94
01:08:20,4.7060,0.0093,0.5472,0.2221,78.01,77.90,793.0,0.04,7.93
01:08:30,4.6870,0.0091,0.5473,0.2221,78.03,77.91,794.0,0.04,7.94
01:08:40,3.0270,0.4082,0.5507,0.2232,78.52,78.30,797.0,1.24,7.97
01:08:50,3.0260,0.4041,0.5541,0.2244,79.00,78.70,793.0,1.22,7.93
01:09:00,3.0160,0.4003,0.5575,0.2255,79.48,79.09,794.0,1.21,7.94
01:09:10,3.0250,0.4117,0.5609,0.2266,79.98,79.49,795.0,1.25,7.95
01:09:20,3.0170,0.4123,0.5644,0.2278,80.47,79.89,795.0,1.24,7.95
01:09:30,3.0370,0.4095,0.5678,0.2289,80.96,80.29,796.0,1.24,7.96
01:09:40,2.9540,0.4053,0.5711,0.2300,81.44,80.68,794.0,1.2,7.94
01:09:50,2.7910,0.3577,0.5739,0.2310,81.83,81.03,796.0,1.0,7.96
01:10:00,2.5460,0.2904,0.5760,0.2318,82.12,81.32,793.0,0.74,7.93
01:10:10,2.4420,0.2593,0.5777,0.2325,82.37,81.57,794.0,0.63,7.94
01:10:20,2.3740,0.2020,0.5791,0.2331,82.56,81.77,792.0,0.48,7.92
01:10:30,2.3540,0.1912,0.5803,0.2336,82.74,81.95,796.0,0.45,7.96
01:10:40,2.3380,0.1801,0.5815,0.2341,82.91,82.13,794.0,0.42,7.94
01:10:50,2.3460,0.1869,0.5827,0.2347,83.08,82.31,798.0,0.44,7.98
01:11:00,2.3440,0.1825,0.5839,0.2352,83.25,82.49,794.0,0.43,7.94
01:11:10,2.3430,0.1819,0.5851,0.2357,83.42,82.66,790.0,0.43,7.9
01:11:20,2.3420,0.1811,0.5863,0.2362,83.59,82.84,793.0,0.42,7.93
01:11:30,2.3390,0.1784,0.5874,0.2367,83.75,83.01,792.0,0.42,7.92
01:11:40,2.3470,0.1893,0.5886,0.2372,83.93,83.20,792.0,0.44,7.92
01:11:50,2.3470,0.1977,0.5899,0.2377,84.11,83.39,793.0,0.46,7.93
01:12:00,2.3450,0.1998,0.5912,0.2383,84.30,83.59,794.0,0.47,7.94
01:12:10,2.3400,0.1803,0.5924,0.2388,84.47,83.76,793.0,0.42,7.93
01:12:20,2.3420,0.1851,0.5936,0.2393,84.64,83.94,793.0,0.43,7.93
01:12:30,2.3400,0.1806,0.5948,0.2398,84.81,84.12,793.0,0.42,7.93
01:12:40,2.3480,0.1810,0.5960,0.2403,84.97,84.29,793.0,0.42,7.93
01:12:50,2.3410,0.1786,0.5971,0.2408,85.14,84.47,792.0,0.42,7.92
01:13:00,2.3430,0.1856,0.5983,0.2413,85.31,84.65,793.0,0.43,7.93
01:13:10,2.3430,0.1806,0.5995,0.2418,85.48,84.83,793.0,0.42,7.93
01:13:20,2.3560,0.1808,0.6007,0.2423,85.65,85.00,793.0,0.43,7.93
01:13:30,2.3530,0.1795,0.6019,0.2428,85.82,85.18,794.0,0.42,7.94
01:13:40,2.3480,0.1793,0.6030,0.2433,85.98,85.35,794.0,0.42,7.94
01:13:50,2.3520,0.1799,0.6042,0.2438,86.15,85.53,795.0,0.42,7.95
01:14:00,2.3490,0.1789,0.6054,0.2443,86.32,85.70,795.0,0.42,7.95
01:14:10,2.3490,0.1897,0.6066,0.2448,86.49,85.89,798.0,0.45,7.98
01:14:20,2.3620,0.2000,0.6079,0.2454,86.68,86.08,796.0,0.47,7.96
01:14:30,2.3680,0.2002,0.6092,0.2460,86.87,86.28,796.0,0.47,7.96
01:14:40,2.3540,0.1800,0.6104,0.2465,87.04,86.45,798.0,0.42,7.98
01:14:50,2.3540,0.1803,0.6116,0.2470,87.20,86.63,796.0,0.42,7.96
01:15:00,2.3470,0.1809,0.6128,0.2475,87.37,86.80,796.0,0.42,7.96
01:15:10,2.3550,0.1795,0.6140,0.2480,87.54,86.98,798.0,0.42,7.98
01:15:20,2.3480,0.1792,0.6151,0.2485,87.71,87.15,796.0,0.42,7.96
01:15:30,2.3490,0.1789,0.6163,0.2490,87.87,87.33,793.0,0.42,7.93
01:15:40,2.3470,0.1780,0.6175,0.2495,88.04,87.50,791.0,0.42,7.91
01:15:50,2.3580,0.1974,0.6187,0.2500,88.22,87.69,788.0,0.47,7.88
01:16:00,2.3500,0.1782,0.6199,0.2505,88.39,87.87,791.0,0.42,7.91
01:16:10,2.3530,0.1765,0.6211,0.2510,88.55,88.04,788.0,0.42,7.88
01:16:20,2.3540,0.1777,0.6222,0.2515,88.72,88.21,787.0,0.42,7.87
01:16:30,2.3460,0.1752,0.6234,0.2520,88.88,88.38,788.0,0.41,7.88
01:16:40,2.3450,0.1777,0.6245,0.2525,89.05,88.55,790.0,0.42,7.9
01:16:50,2.3470,0.1763,0.6257,0.2529,89.21,88.73,790.0,0.41,7.9
01:17:00,2.3480,0.1793,0.6268,0.2534,89.38,88.90,792.0,0.42,7.92
01:17:10,2.3460,0.1820,0.6280,0.2540,89.55,89.08,792.0,0.43,7.92
01:17:20,2.3540,0.1788,0.6292,0.2544,89.71,89.25,793.0,0.42,7.93
01:17:30,2.3510,0.1869,0.6304,0.2550,89.89,89.44,793.0,0.44,7.93
01:17:40,2.3480,0.1769,0.6316,0.2555,90.05,89.61,794.0,0.42,7.94
01:17:50,2.3560,0.1794,0.6327,0.2560,90.22,89.78,796.0,0.42,7.96
01:18:00,2.3500,0.1851,0.6340,0.2565,90.39,89.96,794.0,0.43,7.94
01:18:10,2.3650,0.1819,0.6352,0.2570,90.56,90.14,792.0,0.43,7.92
01:18:20,2.3570,0.1982,0.6364,0.2575,90.75,90.33,793.0,0.47,7.93
01:18:30,2.3500,0.1767,0.6376,0.2580,90.91,90.51,794.0,0.42,7.94
01:18:40,2.3470,0.1765,0.6388,0.2585,91.07,90.68,796.0,0.41,7.96
01:18:50,2.3660,0.1934,0.6400,0.2590,91.26,90.87,795.0,0.46,7.95
01:19:00,2.3480,0.1775,0.6412,0.2595,91.42,91.04,793.0,0.42,7.93
01:19:10,2.3490,0.1758,0.6423,0.2600,91.58,91.21,791.0,0.41,7.91
01:19:20,2.3500,0.1828,0.6435,0.2605,91.75,91.39,791.0,0.43,7.91
01:19:30,2.3470,0.1777,0.6447,0.2610,91.92,91.56,789.0,0.42,7.89
01:19:40,2.3500,0.1778,0.6458,0.2615,92.09,91.73,790.0,0.42,7.9
01:19:50,2.3480,0.1754,0.6470,0.2620,92.25,91.91,790.0,0.41,7.9
01:20:00,2.3550,0.1817,0.6482,0.2625,92.42,92.08,793.0,0.43,7.93
01:20:10,2.3530,0.1961,0.6495,0.2631,92.60,92.27,791.0,0.46,7.91
01:20:20,2.3540,0.1977,0.6507,0.2636,92.79,92.47,790.0,0.47,7.9
01:20:30,2.3450,0.1761,0.6519,0.2641,92.95,92.64,791.0,0.41,7.91
01:20:40,2.3620,0.1978,0.6532,0.2646,93.13,92.83,792.0,0.47,7.92
01:20:50,2.3460,0.1769,0.6543,0.2651,93.30,93.00,792.0,0.42,7.92
01:21:00,2.3490,0.1791,0.6555,0.2656,93.46,93.18,795.0,0.42,7.95
01:21:10,2.3640,0.1804,0.6567,0.2661,93.63,93.35,798.0,0.43,7.98
01:21:20,2.3490,0.1787,0.6579,0.2666,93.80,93.53,799.0,0.42,7.99
01:21:30,2.3480,0.1825,0.6591,0.2671,93.97,93.70,796.0,0.43,7.96
01:21:40,2.3500,0.1778,0.6602,0.2676,94.14,93.88,799.0,0.42,7.99
01:21:50,2.3530,0.1774,0.6614,0.2681,94.30,94.05,799.0,0.42,7.99
01:22:00,2.3550,0.1777,0.6625,0.2686,94.47,94.22,801.0,0.42,8.01
01:22:10,2.3480,0.1791,0.6637,0.2691,94.63,94.40,802.0,0.42,8.02
01:22:20,2.3520,0.1991,0.6650,0.2697,94.82,94.59,802.0,0.47,8.02
01:22:30,2.3470,0.1813,0.6662,0.2702,94.99,94.77,801.0,0.43,8.01
01:22:40,2.3480,0.1789,0.6674,0.2707,95.15,94.94,803.0,0.42,8.03
01:22:50,2.3540,0.1779,0.6685,0.2712,95.32,95.12,803.0,0.42,8.03
01:23:00,2.3500,0.1796,0.6697,0.2717,95.49,95.29,807.0,0.42,8.07
01:23:10,2.3570,0.1790,0.6709,0.2722,95.65,95.47,803.0,0.42,8.03
01:23:20,2.3550,0.1809,0.6720,0.2727,95.82,95.64,803.0,0.43,8.03
01:23:30,2.3680,0.1978,0.6733,0.2732,96.01,95.84,799.0,0.47,7.99
01:23:40,2.3490,0.1799,0.6745,0.2737,96.17,96.01,801.0,0.42,8.01
01:23:50,2.3510,0.1907,0.6758,0.2742,96.35,96.20,802.0,0.45,8.02
01:24:00,2.3530,0.1790,0.6769,0.2747,96.52,96.37,803.0,0.42,8.03
01:24:10,2.3640,0.1797,0.6781,0.2752,96.69,96.55,802.0,0.42,8.02
01:24:20,2.3560,0.1797,0.6793,0.2757,96.86,96.72,802.0,0.42,8.02
01:24:30,2.3640,0.1804,0.6805,0.2762,97.02,96.90,805.0,0.43,8.05
01:24:40,2.3560,0.2003,0.6818,0.2768,97.21,97.09,804.0,0.47,8.04
01:24:50,2.3520,0.1852,0.6830,0.2773,97.38,97.27,803.0,0.44,8.03
01:25:00,2.3610,0.2005,0.6843,0.2779,97.57,97.47,800.0,0.47,8.0
01:25:10,2.3650,0.1889,0.6856,0.2784,97.75,97.65,795.0,0.45,7.95
01:25:20,2.3630,0.1838,0.6868,0.2789,97.92,97.83,804.0,0.43,8.04
01:25:30,2.3540,0.1831,0.6880,0.2794,98.09,98.01,804.0,0.43,8.04
01:25:40,2.3640,0.1807,0.6891,0.2799,98.26,98.19,803.0,0.43,8.03
01:25:50,2.3610,0.1802,0.6903,0.2804,98.43,98.36,803.0,0.43,8.03
01:26:00,2.3660,0.2021,0.6917,0.2810,98.62,98.56,803.0,0.48,8.03
01:26:10,2.3600,0.1817,0.6928,0.2815,98.79,98.73,801.0,0.43,8.01
01:26:20,2.3580,0.1788,0.6940,0.2820,98.95,98.91,800.0,0.42,8.0
01:26:30,2.3610,0.1782,0.6952,0.2825,99.12,99.08,800.0,0.42,8.0
01:26:40,2.3590,0.1983,0.6965,0.2830,99.31,99.28,799.0,0.47,7.99
01:26:50,2.3540,0.1815,0.6977,0.2835,99.48,99.45,802.0,0.43,8.02
01:27:00,2.3540,0.1815,0.6989,0.2840,99.64,99.63,803.0,0.43,8.03
01:27:10,2.3540,0.1803,0.7000,0.2845,99.81,99.81,800.0,0.42,8.0
01:27:20,2.3630,0.1998,0.7013,0.2851,100.00,100.00,801.0,0.47,8.01
01:27:30,2.3680,0.1998,0.7027,0.2856,100.19,100.19,801.0,0.47,8.01