File: output/5/gznomad14-2.csv
Time,Voltage(V),Current(A),Energy(Wh),Capacity(Ah),Energy Proportion(%),Capacity Proportion(%),Irradiance(W/m2),Power(W),Power Score,Watts/oz,cW/oz,Sun Score,Irradiance/100,Efficiency(%)
00:00:00,4.6030,0.0090,0.0001,0.0000,0.00,0.00,409.0,0.04,0.3,0.0,0.0,40.9,4.09,0.01
00:00:30,3.7760,0.0066,0.0067,0.0014,0.14,0.10,642.0,0.02,0.2,0.0,0.0,64.2,6.42,0.0
00:01:00,4.7090,0.1102,0.0162,0.0040,0.33,0.28,445.0,0.52,4.3,0.02,0.2,44.5,4.45,0.09
00:01:30,4.6080,0.0091,0.0166,0.0041,0.34,0.28,195.2,0.04,0.3,0.0,0.0,19.5,1.952,0.02
00:02:00,4.8320,0.4466,0.0228,0.0053,0.47,0.37,652.0,2.16,18.0,0.08,0.8,65.2,6.52,0.27
00:02:30,4.6030,0.0091,0.0232,0.0054,0.48,0.38,224.0,0.04,0.3,0.0,0.0,22.4,2.24,0.01
00:03:00,4.9750,0.0091,0.0352,0.0081,0.72,0.56,348.0,0.05,0.4,0.0,0.0,34.8,3.48,0.01
00:03:30,4.6000,0.0162,0.0357,0.0081,0.73,0.57,131.8,0.07,0.6,0.0,0.0,13.2,1.318,0.04
00:04:00,3.4190,0.2693,0.0405,0.0095,0.83,0.66,141.5,0.92,7.7,0.03,0.3,14.2,1.415,0.52
00:04:30,3.4500,0.2058,0.0427,0.0101,0.87,0.70,130.6,0.71,5.9,0.02,0.2,13.1,1.306,0.44
00:05:00,4.6780,0.0090,0.0451,0.0107,0.92,0.75,135.5,0.04,0.3,0.0,0.0,13.6,1.355,0.02
00:05:30,5.2210,0.0091,0.0496,0.0119,1.02,0.83,150.7,0.05,0.4,0.0,0.0,15.1,1.507,0.03
00:06:00,4.6840,0.0091,0.0533,0.0129,1.09,0.90,204.0,0.04,0.3,0.0,0.0,20.4,2.04,0.02
00:06:30,4.7750,0.1653,0.0594,0.0144,1.22,1.00,185.5,0.79,6.6,0.03,0.3,18.6,1.855,0.34
00:07:00,3.2090,0.2834,0.0622,0.0152,1.27,1.06,197.0,0.91,7.6,0.03,0.3,19.7,1.97,0.37
00:07:30,3.4440,0.3036,0.0707,0.0175,1.45,1.22,180.5,1.05,8.8,0.04,0.4,18.1,1.805,0.47
00:08:00,4.6770,0.0090,0.0738,0.0184,1.51,1.28,265.0,0.04,0.3,0.0,0.0,26.5,2.65,0.01
00:08:30,4.5620,0.1041,0.0902,0.0219,1.85,1.52,223.0,0.47,3.9,0.02,0.2,22.3,2.23,0.17
00:09:00,4.7060,0.0087,0.0926,0.0225,1.90,1.57,173.2,0.04,0.3,0.0,0.0,17.3,1.732,0.02
00:09:30,5.2150,0.0081,0.0954,0.0233,1.95,1.62,158.6,0.04,0.3,0.0,0.0,15.9,1.586,0.02
00:10:00,3.8790,0.1795,0.1013,0.0248,2.08,1.72,155.9,0.7,5.8,0.02,0.2,15.6,1.559,0.36
00:10:30,5.2070,0.0087,0.1039,0.0255,2.13,1.77,154.0,0.05,0.4,0.0,0.0,15.4,1.54,0.03
00:11:00,4.5290,0.5407,0.1119,0.0272,2.29,1.89,494.0,2.45,20.4,0.09,0.9,49.4,4.94,0.4
00:11:30,4.7080,0.9434,0.1245,0.0299,2.55,2.08,703.0,4.44,37.0,0.15,1.5,70.3,7.03,0.51
00:12:00,5.1490,0.0091,0.1270,0.0304,2.60,2.11,686.0,0.05,0.4,0.0,0.0,68.6,6.86,0.01
00:12:30,4.8140,1.1017,0.1525,0.0356,3.13,2.48,680.0,5.3,44.2,0.18,1.8,68.0,6.8,0.63
00:13:00,4.9920,0.2053,0.1557,0.0363,3.19,2.52,671.0,1.02,8.5,0.04,0.4,67.1,6.71,0.12
00:13:30,5.0290,0.0091,0.1706,0.0395,3.50,2.74,661.0,0.05,0.4,0.0,0.0,66.1,6.61,0.01
00:14:00,5.0990,0.0091,0.1815,0.0417,3.72,2.90,647.0,0.05,0.4,0.0,0.0,64.7,6.47,0.01
00:14:30,5.1020,0.0091,0.1929,0.0442,3.95,3.07,646.0,0.05,0.4,0.0,0.0,64.6,6.46,0.01
00:15:00,5.2150,0.0361,0.1978,0.0452,4.05,3.14,648.0,0.19,1.6,0.01,0.1,64.8,6.48,0.02
00:15:30,4.9270,0.0091,0.1982,0.0453,4.06,3.14,649.0,0.04,0.3,0.0,0.0,64.9,6.49,0.0
00:16:00,4.9830,0.7544,0.2088,0.0474,4.28,3.29,641.0,3.76,31.3,0.13,1.3,64.1,6.41,0.47
00:16:30,4.8190,0.3813,0.2141,0.0485,4.39,3.37,636.0,1.84,15.3,0.06,0.6,63.6,6.36,0.23
00:17:00,5.1020,0.0091,0.2145,0.0486,4.40,3.37,637.0,0.05,0.4,0.0,0.0,63.7,6.37,0.01
00:17:30,4.6670,0.1270,0.2164,0.0490,4.43,3.40,640.0,0.59,4.9,0.02,0.2,64.0,6.4,0.07
00:18:00,5.0580,0.1984,0.2196,0.0496,4.50,3.44,642.0,1.0,8.3,0.03,0.3,64.2,6.42,0.13
00:18:30,3.8760,1.0345,0.2443,0.0554,5.01,3.85,641.0,4.01,33.4,0.14,1.4,64.1,6.41,0.5
00:19:00,2.9130,0.7074,0.2568,0.0594,5.26,4.13,629.0,2.06,17.2,0.07,0.7,62.9,6.29,0.26
00:19:30,5.2220,0.0091,0.2660,0.0628,5.45,4.36,636.0,0.05,0.4,0.0,0.0,63.6,6.36,0.01
00:20:00,3.7980,0.9607,0.2764,0.0655,5.66,4.55,630.0,3.65,30.4,0.13,1.3,63.0,6.3,0.47
00:20:30,2.7660,0.6700,0.2945,0.0716,6.04,4.97,635.0,1.85,15.4,0.06,0.6,63.5,6.35,0.23
00:21:00,3.6250,0.9428,0.3042,0.0743,6.24,5.16,652.0,3.42,28.5,0.12,1.2,65.2,6.52,0.42
00:21:30,5.1010,0.0647,0.3194,0.0779,6.55,5.41,672.0,0.33,2.8,0.01,0.1,67.2,6.72,0.04
00:22:00,2.3190,0.1726,0.3278,0.0810,6.72,5.62,114.6,0.4,3.3,0.01,0.1,11.5,1.146,0.28
00:22:30,2.3260,0.1663,0.3311,0.0824,6.79,5.72,122.2,0.39,3.3,0.01,0.1,12.2,1.222,0.26
00:23:00,2.3270,0.1669,0.3344,0.0838,6.85,5.82,116.4,0.39,3.3,0.01,0.1,11.6,1.164,0.27
00:23:30,2.3350,0.1689,0.3376,0.0852,6.92,5.92,113.8,0.39,3.3,0.01,0.1,11.4,1.138,0.28
00:24:00,2.3410,0.1762,0.3410,0.0867,6.99,6.02,115.4,0.41,3.4,0.01,0.1,11.5,1.154,0.29
00:24:30,2.3460,0.1767,0.3444,0.0881,7.06,6.12,123.8,0.41,3.4,0.01,0.1,12.4,1.238,0.27
00:25:00,2.3660,0.2233,0.3483,0.0898,7.14,6.24,178.4,0.53,4.4,0.02,0.2,17.8,1.784,0.24
00:25:30,2.4580,0.5103,0.3575,0.0935,7.33,6.49,670.0,1.25,10.4,0.04,0.4,67.0,6.7,0.15
00:26:00,2.4710,0.5326,0.3682,0.0979,7.55,6.80,709.0,1.32,11.0,0.05,0.5,70.9,7.09,0.15
00:26:30,2.4520,0.5203,0.3788,0.1022,7.76,7.10,710.0,1.28,10.7,0.04,0.4,71.0,7.1,0.15
00:27:00,2.4440,0.5120,0.3891,0.1064,7.97,7.39,714.0,1.25,10.4,0.04,0.4,71.4,7.14,0.14
00:27:30,2.4370,0.4918,0.3990,0.1105,8.18,7.67,704.0,1.2,10.0,0.04,0.4,70.4,7.04,0.14
00:28:00,2.4310,0.5011,0.4089,0.1145,8.38,7.95,717.0,1.22,10.2,0.04,0.4,71.7,7.17,0.14
00:28:30,2.3290,0.1915,0.4126,0.1161,8.46,8.06,149.1,0.45,3.8,0.02,0.2,14.9,1.491,0.24
00:29:00,2.3320,0.1825,0.4161,0.1176,8.53,8.17,149.9,0.43,3.6,0.01,0.1,15.0,1.499,0.23
00:29:30,2.3450,0.2105,0.4202,0.1194,8.61,8.29,173.9,0.49,4.1,0.02,0.2,17.4,1.739,0.23
00:30:00,2.3830,0.3434,0.4255,0.1216,8.72,8.45,390.0,0.82,6.8,0.03,0.3,39.0,3.9,0.17
00:30:30,2.4740,0.5688,0.4358,0.1258,8.93,8.74,744.0,1.41,11.8,0.05,0.5,74.4,7.44,0.15
00:31:00,2.4780,0.5787,0.4476,0.1306,9.17,9.07,741.0,1.43,11.9,0.05,0.5,74.1,7.41,0.16
00:31:30,4.8220,1.0237,0.4654,0.1351,9.54,9.38,735.0,4.94,41.2,0.17,1.7,73.5,7.35,0.54
00:32:00,5.2110,0.0091,0.4716,0.1364,9.67,9.47,734.0,0.05,0.4,0.0,0.0,73.4,7.34,0.01
00:32:30,4.9440,0.0363,0.4724,0.1365,9.68,9.48,727.0,0.18,1.5,0.01,0.1,72.7,7.27,0.02
00:33:00,4.6640,1.0144,0.4858,0.1394,9.96,9.68,724.0,4.73,39.4,0.16,1.6,72.4,7.24,0.53
00:33:30,4.9950,0.0090,0.4966,0.1417,10.18,9.84,731.0,0.04,0.3,0.0,0.0,73.1,7.31,0.0
00:34:00,4.9420,0.0091,0.5041,0.1432,10.33,9.95,728.0,0.04,0.3,0.0,0.0,72.8,7.28,0.0
00:34:30,5.1020,0.0092,0.5065,0.1437,10.38,9.98,728.0,0.05,0.4,0.0,0.0,72.8,7.28,0.01
00:35:00,5.0990,0.0091,0.5069,0.1438,10.39,9.98,726.0,0.05,0.4,0.0,0.0,72.6,7.26,0.01
00:35:30,2.9320,0.7966,0.5208,0.1483,10.67,10.30,718.0,2.34,19.5,0.08,0.8,71.8,7.18,0.26
00:36:00,2.5730,0.6090,0.5358,0.1539,10.98,10.69,712.0,1.57,13.1,0.05,0.5,71.2,7.12,0.18
00:36:30,4.8050,1.1121,0.5589,0.1603,11.45,11.13,691.0,5.34,44.5,0.19,1.9,69.1,6.91,0.62
00:37:00,2.4660,0.4475,0.5784,0.1658,11.85,11.51,539.0,1.1,9.2,0.04,0.4,53.9,5.39,0.16
00:37:30,2.5640,0.6277,0.5888,0.1700,12.07,11.80,694.0,1.61,13.4,0.06,0.6,69.4,6.94,0.19
00:38:00,2.4810,0.5596,0.6004,0.1746,12.30,12.12,692.0,1.39,11.6,0.05,0.5,69.2,6.92,0.16
00:38:30,2.4470,0.5102,0.6111,0.1790,12.52,12.43,692.0,1.25,10.4,0.04,0.4,69.2,6.92,0.15
00:39:00,2.4360,0.5178,0.6216,0.1833,12.74,12.73,684.0,1.26,10.5,0.04,0.4,68.4,6.84,0.15
00:39:30,4.9440,0.0092,0.6253,0.1847,12.81,12.83,693.0,0.05,0.4,0.0,0.0,69.3,6.93,0.01
00:40:00,2.8700,0.7595,0.6396,0.1894,13.11,13.15,698.0,2.18,18.2,0.08,0.8,69.8,6.98,0.25
00:40:30,2.5630,0.6170,0.6543,0.1950,13.41,13.54,701.0,1.58,13.2,0.05,0.5,70.1,7.01,0.18
00:41:00,0.3430,0.0000,0.6625,0.1982,13.58,13.77,701.0,0.0,0.0,0.0,0.0,70.1,7.01,0.0
00:41:30,2.9920,0.8231,0.6849,0.2038,14.04,14.15,708.0,2.46,20.5,0.09,0.9,70.8,7.08,0.28
00:42:00,2.6280,0.6686,0.7011,0.2097,14.37,14.57,716.0,1.76,14.7,0.06,0.6,71.6,7.16,0.2
00:42:30,2.5140,0.6105,0.7143,0.2149,14.64,14.93,720.0,1.53,12.8,0.05,0.5,72.0,7.2,0.17
00:43:00,2.4830,0.5777,0.7264,0.2198,14.89,15.26,718.0,1.43,11.9,0.05,0.5,71.8,7.18,0.16
00:43:30,2.4600,0.5375,0.7373,0.2242,15.11,15.57,712.0,1.32,11.0,0.05,0.5,71.2,7.12,0.15
00:44:00,2.4460,0.5120,0.7483,0.2287,15.34,15.88,701.0,1.25,10.4,0.04,0.4,70.1,7.01,0.14
00:44:30,2.5040,0.5674,0.7600,0.2334,15.58,16.21,706.0,1.42,11.8,0.05,0.5,70.6,7.06,0.16
00:45:00,2.8590,0.7869,0.7751,0.2390,15.88,16.60,686.0,2.25,18.8,0.08,0.8,68.6,6.86,0.26
00:45:30,3.2040,0.9194,0.7835,0.2416,16.06,16.78,729.0,2.95,24.6,0.1,1.0,72.9,7.29,0.33
00:46:00,2.5810,0.6284,0.7916,0.2449,16.22,17.01,583.0,1.62,13.5,0.06,0.6,58.3,5.83,0.22
00:46:30,5.2220,0.0088,0.8007,0.2484,16.41,17.25,420.0,0.05,0.4,0.0,0.0,42.0,4.2,0.01
00:47:00,4.9400,0.0091,0.8011,0.2485,16.42,17.26,717.0,0.04,0.3,0.0,0.0,71.7,7.17,0.0
00:47:30,5.0020,0.6030,0.8097,0.2502,16.59,17.38,710.0,3.02,25.2,0.1,1.0,71.0,7.1,0.34
00:48:00,5.0320,0.0092,0.8147,0.2512,16.70,17.45,714.0,0.05,0.4,0.0,0.0,71.4,7.14,0.01
00:48:30,4.9430,0.0091,0.8238,0.2531,16.88,17.58,710.0,0.04,0.3,0.0,0.0,71.0,7.1,0.0
00:49:00,2.6690,0.6812,0.8411,0.2593,17.24,18.01,709.0,1.82,15.2,0.06,0.6,70.9,7.09,0.21
00:49:30,2.5120,0.6028,0.8545,0.2645,17.51,18.37,712.0,1.51,12.6,0.05,0.5,71.2,7.12,0.17
00:50:00,2.4680,0.5510,0.8662,0.2692,17.75,18.70,708.0,1.36,11.3,0.05,0.5,70.8,7.08,0.15
00:50:30,2.4560,0.5411,0.8773,0.2738,17.98,19.01,705.0,1.33,11.1,0.05,0.5,70.5,7.05,0.15
00:51:00,2.4390,0.5354,0.8883,0.2783,18.21,19.33,703.0,1.31,10.9,0.05,0.5,70.3,7.03,0.15
00:51:30,2.4730,0.5696,0.8997,0.2829,18.44,19.65,712.0,1.41,11.8,0.05,0.5,71.2,7.12,0.16
00:52:00,2.5550,0.6507,0.9125,0.2880,18.70,20.00,717.0,1.66,13.8,0.06,0.6,71.7,7.17,0.19
00:52:30,5.1020,0.0092,0.9239,0.2921,18.94,20.29,722.0,0.05,0.4,0.0,0.0,72.2,7.22,0.01
00:53:00,4.8980,0.1469,0.9262,0.2926,18.98,20.32,720.0,0.72,6.0,0.03,0.3,72.0,7.2,0.08
00:53:30,3.0200,0.8164,0.9509,0.3001,19.49,20.84,714.0,2.47,20.6,0.09,0.9,71.4,7.14,0.28
00:54:00,2.6240,0.7043,0.9677,0.3063,19.83,21.27,716.0,1.85,15.4,0.06,0.6,71.6,7.16,0.21
00:54:30,2.5360,0.6421,0.9816,0.3117,20.12,21.65,723.0,1.63,13.6,0.06,0.6,72.3,7.23,0.18
00:55:00,2.4940,0.5878,0.9944,0.3168,20.38,22.00,719.0,1.47,12.3,0.05,0.5,71.9,7.19,0.16
00:55:30,2.5260,0.6252,1.0074,0.3220,20.65,22.36,709.0,1.58,13.2,0.05,0.5,70.9,7.09,0.18
00:56:00,2.7790,0.7463,1.0227,0.3278,20.96,22.76,707.0,2.07,17.3,0.07,0.7,70.7,7.07,0.24
00:56:30,4.8100,0.8313,1.0341,0.3301,21.19,22.93,694.0,4.0,33.3,0.14,1.4,69.4,6.94,0.46
00:57:00,4.9210,0.0487,1.0350,0.3303,21.21,22.94,704.0,0.24,2.0,0.01,0.1,70.4,7.04,0.03
00:57:30,4.8800,0.9674,1.0491,0.3332,21.50,23.14,724.0,4.72,39.3,0.16,1.6,72.4,7.24,0.53
00:58:00,5.0860,0.0091,1.0496,0.3333,21.51,23.15,725.0,0.05,0.4,0.0,0.0,72.5,7.25,0.01
00:58:30,2.7890,0.7514,1.0621,0.3376,21.77,23.45,726.0,2.1,17.5,0.07,0.7,72.6,7.26,0.23
00:59:00,2.5660,0.6663,1.0768,0.3432,22.07,23.84,724.0,1.71,14.2,0.06,0.6,72.4,7.24,0.19
00:59:30,2.4940,0.5902,1.0895,0.3483,22.33,24.19,729.0,1.47,12.3,0.05,0.5,72.9,7.29,0.16
01:00:00,2.4730,0.5865,1.1016,0.3532,22.58,24.53,731.0,1.45,12.1,0.05,0.5,73.1,7.31,0.16
01:00:30,2.5120,0.6242,1.1142,0.3582,22.83,24.88,733.0,1.57,13.1,0.05,0.5,73.3,7.33,0.17
01:01:00,2.6080,0.6738,1.1281,0.3637,23.12,25.26,726.0,1.76,14.7,0.06,0.6,72.6,7.26,0.2
01:01:30,5.0960,0.0092,1.1423,0.3683,23.41,25.58,723.0,0.05,0.4,0.0,0.0,72.3,7.23,0.01
01:02:00,5.0940,0.1038,1.1492,0.3696,23.55,25.67,737.0,0.53,4.4,0.02,0.2,73.7,7.37,0.06
01:02:30,5.0790,0.1375,1.1653,0.3729,23.88,25.90,740.0,0.7,5.8,0.02,0.2,74.0,7.4,0.08
01:03:00,3.5450,1.0214,1.1763,0.3760,24.11,26.11,741.0,3.62,30.2,0.13,1.3,74.1,7.41,0.39
01:03:30,5.0550,0.1995,1.1961,0.3817,24.51,26.51,738.0,1.01,8.4,0.04,0.4,73.8,7.38,0.11
01:04:00,5.1690,0.0093,1.1985,0.3822,24.56,26.54,726.0,0.05,0.4,0.0,0.0,72.6,7.26,0.01
01:04:30,5.1050,0.0091,1.2006,0.3826,24.60,26.57,722.0,0.05,0.4,0.0,0.0,72.2,7.22,0.01
01:05:00,2.9640,0.8570,1.2269,0.3903,25.14,27.11,713.0,2.54,21.2,0.09,0.9,71.3,7.13,0.29
01:05:30,2.5920,0.6793,1.2424,0.3962,25.46,27.51,724.0,1.76,14.7,0.06,0.6,72.4,7.24,0.2
01:06:00,2.5170,0.6076,1.2559,0.4015,25.74,27.88,740.0,1.53,12.8,0.05,0.5,74.0,7.4,0.17
01:06:30,2.4880,0.6152,1.2685,0.4066,26.00,28.24,741.0,1.53,12.8,0.05,0.5,74.1,7.41,0.17
01:07:00,2.4730,0.5660,1.2805,0.4114,26.24,28.57,734.0,1.4,11.7,0.05,0.5,73.4,7.34,0.15
01:07:30,2.5330,0.6327,1.2937,0.4166,26.51,28.94,729.0,1.6,13.3,0.06,0.6,72.9,7.29,0.18
01:08:00,3.0020,0.8528,1.3107,0.4228,26.86,29.36,737.0,2.56,21.3,0.09,0.9,73.7,7.37,0.28
01:08:30,3.1840,0.8819,1.3406,0.4310,27.47,29.93,736.0,2.81,23.4,0.1,1.0,73.6,7.36,0.31
01:09:00,3.0840,0.8690,1.3555,0.4358,27.78,30.27,743.0,2.68,22.3,0.09,0.9,74.3,7.43,0.29
01:09:30,3.0250,0.8427,1.3716,0.4409,28.11,30.62,744.0,2.55,21.3,0.09,0.9,74.4,7.44,0.28
01:10:00,4.9030,0.0091,1.3905,0.4462,28.50,30.99,746.0,0.04,0.3,0.0,0.0,74.6,7.46,0.0
01:10:30,3.4820,1.0586,1.4165,0.4541,29.03,31.54,744.0,3.69,30.8,0.13,1.3,74.4,7.44,0.4
01:11:00,3.1430,0.8636,1.4381,0.4595,29.47,31.91,748.0,2.71,22.6,0.09,0.9,74.8,7.48,0.29
01:11:30,5.0920,0.4212,1.4598,0.4658,29.92,32.35,743.0,2.14,17.8,0.07,0.7,74.3,7.43,0.23
01:12:00,3.1420,0.8757,1.4755,0.4707,30.24,32.69,744.0,2.75,22.9,0.1,1.0,74.4,7.44,0.3
01:12:30,5.0880,0.0091,1.4954,0.4748,30.65,32.98,740.0,0.05,0.4,0.0,0.0,74.0,7.4,0.01
01:13:00,4.9210,0.0092,1.5018,0.4761,30.78,33.06,739.0,0.05,0.4,0.0,0.0,73.9,7.39,0.01
01:13:30,5.0170,0.0091,1.5093,0.4776,30.93,33.17,740.0,0.05,0.4,0.0,0.0,74.0,7.4,0.01
01:14:00,5.1020,0.0091,1.5289,0.4820,31.33,33.48,746.0,0.05,0.4,0.0,0.0,74.6,7.46,0.01
01:14:30,4.9070,0.3570,1.5505,0.4865,31.77,33.79,750.0,1.75,14.6,0.06,0.6,75.0,7.5,0.19
01:15:00,5.2090,0.0092,1.5591,0.4883,31.95,33.91,756.0,0.05,0.4,0.0,0.0,75.6,7.56,0.01
01:15:30,3.0640,0.8425,1.5665,0.4907,32.10,34.08,760.0,2.58,21.5,0.09,0.9,76.0,7.6,0.27
01:16:00,2.6440,0.7320,1.5838,0.4969,32.46,34.51,757.0,1.94,16.2,0.07,0.7,75.7,7.57,0.21
01:16:30,2.5270,0.6484,1.5978,0.5024,32.74,34.89,757.0,1.64,13.7,0.06,0.6,75.7,7.57,0.17
01:17:00,2.5070,0.6322,1.6109,0.5077,33.01,35.26,756.0,1.58,13.2,0.05,0.5,75.6,7.56,0.17
01:17:30,2.5230,0.6411,1.6241,0.5129,33.28,35.62,755.0,1.62,13.5,0.06,0.6,75.5,7.55,0.17
01:18:00,2.6540,0.6799,1.6385,0.5185,33.58,36.01,759.0,1.8,15.0,0.06,0.6,75.9,7.59,0.19
01:18:30,5.1030,0.0092,1.6530,0.5233,33.88,36.34,766.0,0.05,0.4,0.0,0.0,76.6,7.66,0.01
01:19:00,4.9300,0.2707,1.6662,0.5268,34.15,36.59,765.0,1.33,11.1,0.05,0.5,76.5,7.65,0.14
01:19:30,4.8860,0.1814,1.6689,0.5273,34.20,36.62,765.0,0.89,7.4,0.03,0.3,76.5,7.65,0.09
01:20:00,3.2740,0.9478,1.6878,0.5322,34.59,36.96,772.0,3.1,25.8,0.11,1.1,77.2,7.72,0.32
01:20:30,4.9340,0.0091,1.6892,0.5324,34.62,36.98,771.0,0.04,0.3,0.0,0.0,77.1,7.71,0.0
01:21:00,4.6270,1.0905,1.7039,0.5356,34.92,37.20,773.0,5.05,42.1,0.18,1.8,77.3,7.73,0.53
01:21:30,4.3720,0.9431,1.7203,0.5392,35.25,37.45,783.0,4.12,34.3,0.14,1.4,78.3,7.83,0.42
01:22:00,5.0450,0.0092,1.7357,0.5432,35.57,37.73,794.0,0.05,0.4,0.0,0.0,79.4,7.94,0.01
01:22:30,5.0870,0.0091,1.7620,0.5486,36.11,38.10,803.0,0.05,0.4,0.0,0.0,80.3,8.03,0.01
01:23:00,5.1400,0.0092,1.7779,0.5521,36.44,38.34,800.0,0.05,0.4,0.0,0.0,80.0,8.0,0.01
01:23:30,5.1760,0.1533,1.7909,0.5556,36.70,38.59,787.0,0.79,6.6,0.03,0.3,78.7,7.87,0.08
01:24:00,4.9260,0.0223,1.8120,0.5607,37.14,38.94,784.0,0.11,0.9,0.0,0.0,78.4,7.84,0.01
01:24:30,5.1150,0.0092,1.8220,0.5628,37.34,39.09,779.0,0.05,0.4,0.0,0.0,77.9,7.79,0.01
01:25:00,5.0940,0.0429,1.8229,0.5630,37.36,39.10,779.0,0.22,1.8,0.01,0.1,77.9,7.79,0.02
01:25:30,5.2190,0.0092,1.8299,0.5644,37.50,39.20,783.0,0.05,0.4,0.0,0.0,78.3,7.83,0.01
01:26:00,5.1070,0.0092,1.8349,0.5654,37.60,39.26,779.0,0.05,0.4,0.0,0.0,77.9,7.79,0.01
01:26:30,4.7740,0.6864,1.8611,0.5710,38.14,39.65,768.0,3.28,27.3,0.11,1.1,76.8,7.68,0.34
01:27:00,5.2130,0.0092,1.8617,0.5711,38.15,39.66,775.0,0.05,0.4,0.0,0.0,77.5,7.75,0.01
01:27:30,5.1040,0.0091,1.8631,0.5714,38.18,39.68,781.0,0.05,0.4,0.0,0.0,78.1,7.81,0.01
01:28:00,5.2130,0.0092,1.8742,0.5736,38.41,39.84,791.0,0.05,0.4,0.0,0.0,79.1,7.91,0.01
01:28:30,3.2290,0.9917,1.8834,0.5764,38.60,40.03,784.0,3.2,26.7,0.11,1.1,78.4,7.84,0.33
01:29:00,2.6550,0.7177,1.9006,0.5827,38.95,40.47,786.0,1.91,15.9,0.07,0.7,78.6,7.86,0.2
01:29:30,2.5490,0.6669,1.9153,0.5884,39.25,40.87,791.0,1.7,14.2,0.06,0.6,79.1,7.91,0.17
01:30:00,2.5690,0.7021,1.9299,0.5941,39.55,41.26,801.0,1.8,15.0,0.06,0.6,80.1,8.01,0.18
01:30:30,2.7700,0.7955,1.9461,0.6002,39.88,41.68,799.0,2.2,18.3,0.08,0.8,79.9,7.99,0.22
01:31:00,3.4680,1.0389,1.9766,0.6082,40.51,42.24,799.0,3.6,30.0,0.13,1.3,79.9,7.99,0.36
01:31:30,2.9110,0.8385,2.0000,0.6157,40.99,42.76,793.0,2.44,20.3,0.08,0.8,79.3,7.93,0.25
01:32:00,2.7040,0.7742,2.0181,0.6223,41.36,43.22,795.0,2.09,17.4,0.07,0.7,79.5,7.95,0.21
01:32:30,3.0330,0.9214,2.0380,0.6293,41.77,43.70,795.0,2.79,23.3,0.1,1.0,79.5,7.95,0.28
01:33:00,3.2450,0.9692,2.0729,0.6383,42.48,44.33,793.0,3.15,26.3,0.11,1.1,79.3,7.93,0.32
01:33:30,5.0720,0.0223,2.0974,0.6443,42.98,44.75,799.0,0.11,0.9,0.0,0.0,79.9,7.99,0.01
01:34:00,3.1200,0.9494,2.1243,0.6514,43.54,45.24,801.0,2.96,24.7,0.1,1.0,80.1,8.01,0.3
01:34:30,3.5480,1.1088,2.1365,0.6547,43.79,45.47,801.0,3.93,32.8,0.14,1.4,80.1,8.01,0.4
01:35:00,4.9070,0.9295,2.1599,0.6604,44.27,45.86,800.0,4.56,38.0,0.16,1.6,80.0,8.0,0.46
01:35:30,5.1010,0.0091,2.1603,0.6605,44.27,45.87,804.0,0.05,0.4,0.0,0.0,80.4,8.04,0.01
01:36:00,5.0490,0.0092,2.1607,0.6605,44.28,45.87,804.0,0.05,0.4,0.0,0.0,80.4,8.04,0.01
01:36:30,5.0360,0.0092,2.1628,0.6610,44.32,45.90,809.0,0.05,0.4,0.0,0.0,80.9,8.09,0.0
01:37:00,5.0770,0.0091,2.1733,0.6630,44.54,46.05,807.0,0.05,0.4,0.0,0.0,80.7,8.07,0.0
01:37:30,5.1280,0.0092,2.1757,0.6635,44.59,46.08,813.0,0.05,0.4,0.0,0.0,81.3,8.13,0.0
01:38:00,4.3440,1.0304,2.1904,0.6668,44.89,46.31,818.0,4.48,37.3,0.16,1.6,81.8,8.18,0.44
01:38:30,4.9950,0.0090,2.1922,0.6671,44.93,46.33,826.0,0.04,0.3,0.0,0.0,82.6,8.26,0.0
01:39:00,2.8860,0.8678,2.2116,0.6730,45.32,46.74,827.0,2.5,20.8,0.09,0.9,82.7,8.27,0.24
01:39:30,2.6920,0.7728,2.2293,0.6795,45.69,47.19,827.0,2.08,17.3,0.07,0.7,82.7,8.27,0.2
01:40:00,2.9800,0.8923,2.2492,0.6866,46.10,47.68,833.0,2.66,22.2,0.09,0.9,83.3,8.33,0.26
01:40:30,5.1090,0.0093,2.2697,0.6909,46.51,47.98,830.0,0.05,0.4,0.0,0.0,83.0,8.3,0.0
01:41:00,4.0800,1.2589,2.2993,0.6977,47.12,48.46,834.0,5.14,42.8,0.18,1.8,83.4,8.34,0.5
01:41:30,4.8650,1.0565,2.3138,0.7007,47.42,48.66,846.0,5.14,42.8,0.18,1.8,84.6,8.46,0.49
01:42:00,5.0260,0.0092,2.3142,0.7008,47.43,48.67,849.0,0.05,0.4,0.0,0.0,84.9,8.49,0.0
01:42:30,5.0120,0.0689,2.3200,0.7020,47.54,48.75,840.0,0.35,2.9,0.01,0.1,84.0,8.4,0.03
01:43:00,4.9280,0.9656,2.3335,0.7047,47.82,48.94,835.0,4.76,39.7,0.17,1.7,83.5,8.35,0.46
01:43:30,4.8630,1.3758,2.3609,0.7104,48.38,49.33,830.0,6.69,55.8,0.23,2.3,83.0,8.3,0.65
01:44:00,5.1440,0.0092,2.3612,0.7104,48.39,49.34,831.0,0.05,0.4,0.0,0.0,83.1,8.31,0.0
01:44:30,4.9230,0.0091,2.3616,0.7105,48.40,49.35,805.0,0.04,0.3,0.0,0.0,80.5,8.05,0.0
01:45:00,4.8320,1.0780,2.3856,0.7155,48.89,49.69,737.0,5.21,43.4,0.18,1.8,73.7,7.37,0.57
01:45:30,5.0990,0.0091,2.3929,0.7171,49.04,49.80,722.0,0.05,0.4,0.0,0.0,72.2,7.22,0.01
01:46:00,2.9090,0.7834,2.4110,0.7223,49.41,50.17,739.0,2.28,19.0,0.08,0.8,73.9,7.39,0.25
01:46:30,2.5570,0.5942,2.4243,0.7274,49.68,50.52,690.0,1.52,12.7,0.05,0.5,69.0,6.9,0.18
01:47:00,2.4870,0.5630,2.4366,0.7323,49.93,50.86,740.0,1.4,11.7,0.05,0.5,74.0,7.4,0.15
01:47:30,2.4910,0.6096,2.4489,0.7373,50.19,51.20,778.0,1.52,12.7,0.05,0.5,77.8,7.78,0.16
01:48:00,2.4560,0.5623,2.4604,0.7420,50.42,51.53,773.0,1.38,11.5,0.05,0.5,77.3,7.73,0.14
01:48:30,2.4810,0.5992,2.4724,0.7468,50.67,51.86,773.0,1.49,12.4,0.05,0.5,77.3,7.73,0.16
01:49:00,2.5070,0.6167,2.4850,0.7519,50.93,52.22,771.0,1.55,12.9,0.05,0.5,77.1,7.71,0.16
01:49:30,2.6920,0.7512,2.5000,0.7576,51.23,52.62,784.0,2.02,16.8,0.07,0.7,78.4,7.84,0.21
01:50:00,4.8160,1.0952,2.5258,0.7638,51.76,53.05,796.0,5.27,43.9,0.18,1.8,79.6,7.96,0.53
01:50:30,3.3140,0.9770,2.5469,0.7691,52.20,53.41,798.0,3.24,27.0,0.11,1.1,79.8,7.98,0.33
01:51:00,3.6590,1.1535,2.5702,0.7753,52.67,53.85,791.0,4.22,35.2,0.15,1.5,79.1,7.91,0.43
01:51:30,5.0170,0.0091,2.5821,0.7779,52.92,54.02,799.0,0.05,0.4,0.0,0.0,79.9,7.99,0.01
01:52:00,3.2780,0.9743,2.6061,0.7845,53.41,54.48,803.0,3.19,26.6,0.11,1.1,80.3,8.03,0.32
01:52:30,4.7420,0.8498,2.6306,0.7898,53.91,54.85,817.0,4.03,33.6,0.14,1.4,81.7,8.17,0.4
01:53:00,2.8930,0.7914,2.6458,0.7947,54.22,55.19,822.0,2.29,19.1,0.08,0.8,82.2,8.22,0.22
01:53:30,2.3070,0.2284,2.6507,0.7968,54.32,55.34,239.0,0.53,4.4,0.02,0.2,23.9,2.39,0.18
01:54:00,2.3150,0.1962,2.6547,0.7985,54.40,55.45,194.0,0.45,3.8,0.02,0.2,19.4,1.94,0.19
01:54:30,2.3280,0.2120,2.6587,0.8002,54.49,55.58,194.5,0.49,4.1,0.02,0.2,19.5,1.945,0.2
01:55:00,2.3330,0.2202,2.6629,0.8020,54.57,55.70,214.0,0.51,4.3,0.02,0.2,21.4,2.14,0.19
01:55:30,2.3280,0.2159,2.6670,0.8038,54.66,55.82,233.0,0.5,4.2,0.02,0.2,23.3,2.33,0.17
01:56:00,2.3650,0.3496,2.6727,0.8062,54.77,55.99,497.0,0.83,6.9,0.03,0.3,49.7,4.97,0.13
01:56:30,2.4230,0.4997,2.6808,0.8096,54.94,56.23,652.0,1.21,10.1,0.04,0.4,65.2,6.52,0.15
01:57:00,2.4330,0.5161,2.6919,0.8141,55.17,56.54,753.0,1.26,10.5,0.04,0.4,75.3,7.53,0.13
01:57:30,2.4440,0.4969,2.7026,0.8185,55.39,56.85,749.0,1.21,10.1,0.04,0.4,74.9,7.49,0.13
01:58:00,2.4190,0.5206,2.7131,0.8229,55.60,57.15,714.0,1.26,10.5,0.04,0.4,71.4,7.14,0.14
01:58:30,2.4640,0.5202,2.7239,0.8273,55.82,57.46,721.0,1.28,10.7,0.04,0.4,72.1,7.21,0.14
01:59:00,2.6620,0.7487,2.7376,0.8326,56.10,57.83,759.0,1.99,16.6,0.07,0.7,75.9,7.59,0.21
01:59:30,4.6030,0.0091,2.7444,0.8350,56.24,57.99,776.0,0.04,0.3,0.0,0.0,77.6,7.76,0.0
02:00:00,3.1260,0.8463,2.7618,0.8403,56.60,58.36,763.0,2.65,22.1,0.09,0.9,76.3,7.63,0.28
02:00:30,4.5650,0.1572,2.7717,0.8433,56.80,58.56,757.0,0.72,6.0,0.03,0.3,75.7,7.57,0.08
02:01:00,4.4740,0.5322,2.7918,0.8492,57.21,58.97,661.0,2.38,19.8,0.08,0.8,66.1,6.61,0.29
02:01:30,2.6490,0.6132,2.8078,0.8548,57.54,59.37,612.0,1.62,13.5,0.06,0.6,61.2,6.12,0.21
02:02:00,2.4800,0.5404,2.8198,0.8596,57.79,59.70,651.0,1.34,11.2,0.05,0.5,65.1,6.51,0.17
02:02:30,2.4140,0.4908,2.8303,0.8639,58.00,59.99,670.0,1.18,9.8,0.04,0.4,67.0,6.7,0.14
02:03:00,2.4030,0.4589,2.8401,0.8679,58.21,60.28,671.0,1.1,9.2,0.04,0.4,67.1,6.71,0.13
02:03:30,2.3980,0.4638,2.8501,0.8721,58.41,60.57,676.0,1.11,9.3,0.04,0.4,67.6,6.76,0.13
02:04:00,2.4040,0.4761,2.8601,0.8762,58.61,60.86,674.0,1.14,9.5,0.04,0.4,67.4,6.74,0.14
02:04:30,2.3940,0.4575,2.8694,0.8801,58.80,61.12,665.0,1.1,9.2,0.04,0.4,66.5,6.65,0.13
02:05:00,2.4270,0.4695,2.8789,0.8841,59.00,61.40,675.0,1.14,9.5,0.04,0.4,67.5,6.75,0.14
02:05:30,2.4560,0.5281,2.8897,0.8885,59.22,61.70,699.0,1.3,10.8,0.05,0.5,69.9,6.99,0.15
02:06:00,2.6080,0.6657,2.9026,0.8936,59.49,62.06,719.0,1.74,14.5,0.06,0.6,71.9,7.19,0.2
02:06:30,4.6740,0.0135,2.9098,0.8960,59.63,62.23,658.0,0.06,0.5,0.0,0.0,65.8,6.58,0.01
02:07:00,2.7020,0.6683,2.9256,0.9016,59.96,62.62,639.0,1.81,15.1,0.06,0.6,63.9,6.39,0.23
02:07:30,2.5120,0.5976,2.9388,0.9068,60.23,62.97,674.0,1.5,12.5,0.05,0.5,67.4,6.74,0.18
02:08:00,2.4430,0.5544,2.9508,0.9116,60.47,63.31,700.0,1.35,11.3,0.05,0.5,70.0,7.0,0.16
02:08:30,2.3620,0.4186,2.9607,0.9157,60.68,63.60,630.0,0.99,8.3,0.03,0.3,63.0,6.3,0.13
02:09:00,2.3260,0.3191,2.9671,0.9185,60.81,63.79,488.0,0.74,6.2,0.03,0.3,48.8,4.88,0.12
02:09:30,2.2910,0.2026,2.9712,0.9203,60.89,63.91,212.0,0.46,3.8,0.02,0.2,21.2,2.12,0.17
02:10:00,2.3070,0.2665,2.9758,0.9223,60.99,64.05,271.0,0.61,5.1,0.02,0.2,27.1,2.71,0.18
02:10:30,2.3350,0.2836,2.9815,0.9247,61.10,64.22,313.0,0.66,5.5,0.02,0.2,31.3,3.13,0.17
02:11:00,2.2930,0.1904,2.9852,0.9264,61.18,64.34,188.0,0.44,3.7,0.02,0.2,18.8,1.88,0.19
02:11:30,2.3130,0.1988,2.9891,0.9280,61.26,64.45,187.5,0.46,3.8,0.02,0.2,18.8,1.875,0.2
02:12:00,2.3150,0.2265,2.9931,0.9298,61.34,64.57,228.0,0.52,4.3,0.02,0.2,22.8,2.28,0.18
02:12:30,2.3330,0.2252,2.9979,0.9318,61.44,64.72,247.0,0.53,4.4,0.02,0.2,24.7,2.47,0.17
02:13:00,2.3680,0.3614,3.0041,0.9344,61.56,64.90,439.0,0.86,7.2,0.03,0.3,43.9,4.39,0.16
02:13:30,2.4210,0.4792,3.0135,0.9383,61.76,65.17,694.0,1.16,9.7,0.04,0.4,69.4,6.94,0.13
02:14:00,2.4240,0.4678,3.0230,0.9423,61.95,65.44,684.0,1.13,9.4,0.04,0.4,68.4,6.84,0.13
02:14:30,2.4310,0.4785,3.0325,0.9462,62.15,65.71,668.0,1.16,9.7,0.04,0.4,66.8,6.68,0.14
02:15:00,2.4950,0.5624,3.0435,0.9507,62.37,66.02,672.0,1.4,11.7,0.05,0.5,67.2,6.72,0.17
02:15:30,4.6770,0.0091,3.0532,0.9543,62.57,66.28,652.0,0.04,0.3,0.0,0.0,65.2,6.52,0.0
02:16:00,3.2500,0.7587,3.0612,0.9566,62.74,66.44,677.0,2.47,20.6,0.09,0.9,67.7,6.77,0.29
02:16:30,2.7500,0.7171,3.0791,0.9628,63.10,66.86,689.0,1.97,16.4,0.07,0.7,68.9,6.89,0.23
02:17:00,2.5070,0.6017,3.0926,0.9680,63.38,67.23,689.0,1.51,12.6,0.05,0.5,68.9,6.89,0.18
02:17:30,2.4700,0.5629,3.1044,0.9728,63.62,67.56,698.0,1.39,11.6,0.05,0.5,69.8,6.98,0.16
02:18:00,2.4120,0.4775,3.1148,0.9771,63.83,67.86,654.0,1.15,9.6,0.04,0.4,65.4,6.54,0.14
02:18:30,2.4230,0.5001,3.1247,0.9812,64.04,68.14,688.0,1.21,10.1,0.04,0.4,68.8,6.88,0.14
02:19:00,2.4270,0.4977,3.1350,0.9854,64.25,68.43,687.0,1.21,10.1,0.04,0.4,68.7,6.87,0.14
02:19:30,2.4840,0.5841,3.1463,0.9900,64.48,68.76,714.0,1.45,12.1,0.05,0.5,71.4,7.14,0.16
02:20:00,2.7990,0.7723,3.1618,0.9958,64.80,69.16,744.0,2.16,18.0,0.08,0.8,74.4,7.44,0.23
02:20:30,5.2140,0.0092,3.1759,0.9992,65.09,69.40,780.0,0.05,0.4,0.0,0.0,78.0,7.8,0.01
02:21:00,4.6940,0.7504,3.2011,1.0046,65.60,69.77,789.0,3.52,29.3,0.12,1.2,78.9,7.89,0.36
02:21:30,4.7840,1.2870,3.2185,1.0082,65.96,70.02,793.0,6.16,51.3,0.21,2.1,79.3,7.93,0.63
02:22:00,5.0820,0.0767,3.2343,1.0114,66.28,70.24,819.0,0.39,3.3,0.01,0.1,81.9,8.19,0.04
02:22:30,4.9400,0.0091,3.2375,1.0121,66.35,70.29,827.0,0.04,0.3,0.0,0.0,82.7,8.27,0.0
02:23:00,4.9640,0.0092,3.2549,1.0157,66.70,70.54,828.0,0.05,0.4,0.0,0.0,82.8,8.28,0.0
02:23:30,5.2220,0.0091,3.2553,1.0158,66.71,70.55,831.0,0.05,0.4,0.0,0.0,83.1,8.31,0.0
02:24:00,5.1080,0.0090,3.2674,1.0183,66.96,70.72,841.0,0.05,0.4,0.0,0.0,84.1,8.41,0.0
02:24:30,5.2090,0.0091,3.2750,1.0198,67.12,70.82,842.0,0.05,0.4,0.0,0.0,84.2,8.42,0.0
02:25:00,5.2220,0.0092,3.2835,1.0215,67.29,70.94,836.0,0.05,0.4,0.0,0.0,83.6,8.36,0.0
02:25:30,2.3990,0.3086,3.2896,1.0237,67.42,71.10,352.0,0.74,6.2,0.03,0.3,35.2,3.52,0.17
02:26:00,2.4230,0.4061,3.2966,1.0266,67.56,71.30,460.0,0.98,8.2,0.03,0.3,46.0,4.6,0.17
02:26:30,2.7270,0.8268,3.3134,1.0328,67.91,71.73,885.0,2.25,18.8,0.08,0.8,88.5,8.85,0.21
02:27:00,2.4510,0.5496,3.3273,1.0383,68.19,72.11,781.0,1.35,11.3,0.05,0.5,78.1,7.81,0.14
02:27:30,4.4780,1.4522,3.3489,1.0437,68.63,72.49,786.0,6.5,54.2,0.23,2.3,78.6,7.86,0.67
02:28:00,4.0150,1.0789,3.3656,1.0476,68.97,72.76,862.0,4.33,36.1,0.15,1.5,86.2,8.62,0.41
02:28:30,5.0000,0.6128,3.4052,1.0570,69.79,73.41,867.0,3.06,25.5,0.11,1.1,86.7,8.67,0.28
02:29:00,5.1130,0.0091,3.4087,1.0577,69.86,73.46,871.0,0.05,0.4,0.0,0.0,87.1,8.71,0.0
02:29:30,4.9590,0.0092,3.4217,1.0613,70.12,73.71,866.0,0.05,0.4,0.0,0.0,86.6,8.66,0.0
02:30:00,4.9230,0.0092,3.4377,1.0646,70.45,73.93,857.0,0.05,0.4,0.0,0.0,85.7,8.57,0.0
02:30:30,3.4410,1.1881,3.4493,1.0679,70.69,74.17,851.0,4.09,34.1,0.14,1.4,85.1,8.51,0.39
02:31:00,5.2140,0.0092,3.4717,1.0725,71.15,74.49,847.0,0.05,0.4,0.0,0.0,84.7,8.47,0.0
02:31:30,5.0870,0.2684,3.4758,1.0733,71.23,74.54,843.0,1.37,11.4,0.05,0.5,84.3,8.43,0.13
02:32:00,3.1320,0.9436,3.4978,1.0788,71.68,74.92,840.0,2.96,24.7,0.1,1.0,84.0,8.4,0.28
02:32:30,5.0570,0.0092,3.5047,1.0802,71.82,75.02,837.0,0.05,0.4,0.0,0.0,83.7,8.37,0.0
02:33:00,5.0090,0.0737,3.5071,1.0806,71.87,75.05,831.0,0.37,3.1,0.01,0.1,83.1,8.31,0.04
02:33:30,4.9020,0.3810,3.5208,1.0834,72.16,75.24,826.0,1.87,15.6,0.06,0.6,82.6,8.26,0.18
02:34:00,5.0840,0.0092,3.5213,1.0835,72.16,75.25,823.0,0.05,0.4,0.0,0.0,82.3,8.23,0.0
02:34:30,5.0950,0.0361,3.5290,1.0850,72.32,75.35,821.0,0.18,1.5,0.01,0.1,82.1,8.21,0.02
02:35:00,5.1200,0.0091,3.5453,1.0884,72.66,75.59,820.0,0.05,0.4,0.0,0.0,82.0,8.2,0.0
02:35:30,4.9010,0.1156,3.5472,1.0887,72.70,75.61,819.0,0.57,4.7,0.02,0.2,81.9,8.19,0.06
02:36:00,5.1830,0.1433,3.5495,1.0892,72.74,75.64,815.0,0.74,6.2,0.03,0.3,81.5,8.15,0.07
02:36:30,3.1790,0.9373,3.5663,1.0944,73.09,76.01,814.0,2.98,24.8,0.1,1.0,81.4,8.14,0.3
02:37:00,4.9380,0.0091,3.5678,1.0947,73.12,76.03,814.0,0.04,0.3,0.0,0.0,81.4,8.14,0.0
02:37:30,4.9300,0.0092,3.5732,1.0958,73.23,76.10,817.0,0.05,0.4,0.0,0.0,81.7,8.17,0.0
02:38:00,5.1610,0.0092,3.5837,1.0988,73.44,76.31,826.0,0.05,0.4,0.0,0.0,82.6,8.26,0.0
02:38:30,5.0180,0.0091,3.5870,1.0994,73.51,76.36,823.0,0.05,0.4,0.0,0.0,82.3,8.23,0.0
02:39:00,4.9250,1.1920,3.6197,1.1061,74.18,76.82,828.0,5.87,48.9,0.2,2.0,82.8,8.28,0.57
02:39:30,4.9440,0.0091,3.6327,1.1087,74.45,77.00,830.0,0.04,0.3,0.0,0.0,83.0,8.3,0.0
02:40:00,5.1030,0.0091,3.6412,1.1104,74.62,77.12,834.0,0.05,0.4,0.0,0.0,83.4,8.34,0.0
02:40:30,5.0430,0.0092,3.6507,1.1123,74.82,77.25,836.0,0.05,0.4,0.0,0.0,83.6,8.36,0.0
02:41:00,4.6820,1.4452,3.6874,1.1201,75.57,77.79,841.0,6.77,56.4,0.24,2.4,84.1,8.41,0.65
02:41:30,4.7270,1.1019,3.7021,1.1232,75.87,78.01,842.0,5.21,43.4,0.18,1.8,84.2,8.42,0.5
02:42:00,4.9580,0.0091,3.7025,1.1233,75.88,78.01,847.0,0.05,0.4,0.0,0.0,84.7,8.47,0.0
02:42:30,5.1870,0.0093,3.7218,1.1274,76.27,78.30,846.0,0.05,0.4,0.0,0.0,84.6,8.46,0.0
02:43:00,5.1770,0.0092,3.7336,1.1299,76.52,78.47,844.0,0.05,0.4,0.0,0.0,84.4,8.44,0.0
02:43:30,4.9260,0.0090,3.7465,1.1333,76.78,78.70,844.0,0.04,0.3,0.0,0.0,84.4,8.44,0.0
02:44:00,5.1100,0.0092,3.7473,1.1334,76.80,78.72,840.0,0.05,0.4,0.0,0.0,84.0,8.4,0.0
02:44:30,4.9050,0.2046,3.7504,1.1340,76.86,78.76,837.0,1.0,8.3,0.03,0.3,83.7,8.37,0.1
02:45:00,5.1020,0.0091,3.7552,1.1350,76.96,78.83,837.0,0.05,0.4,0.0,0.0,83.7,8.37,0.0
02:45:30,5.1040,0.0092,3.7661,1.1373,77.18,78.98,834.0,0.05,0.4,0.0,0.0,83.4,8.34,0.0
02:46:00,5.1710,0.0092,3.7693,1.1379,77.25,79.03,828.0,0.05,0.4,0.0,0.0,82.8,8.28,0.0
02:46:30,4.9060,0.9832,3.7923,1.1426,77.72,79.35,827.0,4.82,40.2,0.17,1.7,82.7,8.27,0.47
02:47:00,3.6880,1.2067,3.8049,1.1460,77.98,79.59,823.0,4.45,37.1,0.15,1.5,82.3,8.23,0.44
02:47:30,4.9230,0.0091,3.8053,1.1460,77.98,79.59,824.0,0.04,0.3,0.0,0.0,82.4,8.24,0.0
02:48:00,5.2160,0.0092,3.8172,1.1494,78.23,79.82,819.0,0.05,0.4,0.0,0.0,81.9,8.19,0.0
02:48:30,3.8720,1.3288,3.8342,1.1536,78.58,80.12,819.0,5.15,42.9,0.18,1.8,81.9,8.19,0.51
02:49:00,4.9240,0.0091,3.8556,1.1589,79.02,80.48,826.0,0.04,0.3,0.0,0.0,82.6,8.26,0.0
02:49:30,5.0940,0.0091,3.8785,1.1643,79.49,80.86,825.0,0.05,0.4,0.0,0.0,82.5,8.25,0.0
02:50:00,3.8240,1.1412,3.9027,1.1700,79.98,81.26,827.0,4.36,36.3,0.15,1.5,82.7,8.27,0.43
02:50:30,5.0730,0.0092,3.9209,1.1738,80.36,81.52,829.0,0.05,0.4,0.0,0.0,82.9,8.29,0.0
02:51:00,4.8480,1.2227,3.9478,1.1794,80.91,81.91,827.0,5.93,49.4,0.21,2.1,82.7,8.27,0.58
02:51:30,4.8190,0.4353,3.9692,1.1846,81.34,82.27,823.0,2.1,17.5,0.07,0.7,82.3,8.23,0.21
02:52:00,4.5900,1.4092,3.9955,1.1911,81.88,82.72,818.0,6.47,53.9,0.22,2.2,81.8,8.18,0.64
02:52:30,4.6180,1.2321,4.0116,1.1946,82.21,82.96,820.0,5.69,47.4,0.2,2.0,82.0,8.2,0.56
02:53:00,5.1010,0.0092,4.0329,1.1998,82.65,83.33,817.0,0.05,0.4,0.0,0.0,81.7,8.17,0.0
02:53:30,5.1420,0.3324,4.0430,1.2018,82.86,83.47,817.0,1.71,14.2,0.06,0.6,81.7,8.17,0.17
02:54:00,3.3600,0.9971,4.0525,1.2046,83.05,83.66,818.0,3.35,27.9,0.12,1.2,81.8,8.18,0.33
02:54:30,3.4590,1.0900,4.0745,1.2108,83.50,84.09,817.0,3.77,31.4,0.13,1.3,81.7,8.17,0.37
02:55:00,3.1750,0.9158,4.0916,1.2161,83.85,84.46,816.0,2.91,24.3,0.1,1.0,81.6,8.16,0.29
02:55:30,5.0700,0.0363,4.0923,1.2162,83.87,84.47,814.0,0.18,1.5,0.01,0.1,81.4,8.14,0.02
02:56:00,4.9130,0.7964,4.1146,1.2217,84.32,84.85,809.0,3.91,32.6,0.14,1.4,80.9,8.09,0.39
02:56:30,4.9980,0.0351,4.1154,1.2219,84.34,84.86,808.0,0.18,1.5,0.01,0.1,80.8,8.08,0.02
02:57:00,4.8070,0.5116,4.1393,1.2270,84.83,85.22,813.0,2.46,20.5,0.09,0.9,81.3,8.13,0.24
02:57:30,3.7360,1.1350,4.1513,1.2302,85.08,85.44,814.0,4.24,35.3,0.15,1.5,81.4,8.14,0.42
02:58:00,2.8790,0.8271,4.1769,1.2374,85.60,85.94,815.0,2.38,19.8,0.08,0.8,81.5,8.15,0.24
02:58:30,2.6870,0.7643,4.1943,1.2438,85.96,86.38,815.0,2.05,17.1,0.07,0.7,81.5,8.15,0.2
02:59:00,2.8810,0.8436,4.2130,1.2505,86.34,86.85,814.0,2.43,20.3,0.08,0.8,81.4,8.14,0.24
02:59:30,5.1060,0.1284,4.2323,1.2547,86.74,87.14,814.0,0.66,5.5,0.02,0.2,81.4,8.14,0.07
03:00:00,4.8240,1.2488,4.2495,1.2583,87.09,87.39,819.0,6.02,50.2,0.21,2.1,81.9,8.19,0.59
03:00:30,4.9420,0.8774,4.2822,1.2667,87.76,87.97,822.0,4.34,36.2,0.15,1.5,82.2,8.22,0.43
03:01:00,3.2000,0.9497,4.2909,1.2693,87.94,88.16,816.0,3.04,25.3,0.11,1.1,81.6,8.16,0.3
03:01:30,2.9330,0.9180,4.3202,1.2775,88.54,88.72,815.0,2.69,22.4,0.09,0.9,81.5,8.15,0.27
03:02:00,3.1520,0.9487,4.3358,1.2826,88.86,89.08,823.0,2.99,24.9,0.1,1.0,82.3,8.23,0.29
03:02:30,3.1230,0.9462,4.3665,1.2908,89.49,89.64,817.0,2.95,24.6,0.1,1.0,81.7,8.17,0.29
03:03:00,5.0180,0.7114,4.3852,1.2955,89.87,89.97,823.0,3.57,29.8,0.12,1.2,82.3,8.23,0.35
03:03:30,3.5260,1.1079,4.4149,1.3042,90.48,90.58,829.0,3.91,32.6,0.14,1.4,82.9,8.29,0.38
03:04:00,5.1530,0.2409,4.4326,1.3086,90.84,90.88,831.0,1.24,10.3,0.04,0.4,83.1,8.31,0.12
03:04:30,4.9020,0.1467,4.4675,1.3167,91.56,91.44,835.0,0.72,6.0,0.03,0.3,83.5,8.35,0.07
03:05:00,5.1950,0.0371,4.4803,1.3198,91.82,91.66,844.0,0.19,1.6,0.01,0.1,84.4,8.44,0.02
03:05:30,5.2200,0.0093,4.4889,1.3225,92.00,91.85,852.0,0.05,0.4,0.0,0.0,85.2,8.52,0.0
03:06:00,4.9250,0.0091,4.4893,1.3226,92.00,91.85,850.0,0.04,0.3,0.0,0.0,85.0,8.5,0.0
03:06:30,5.0940,0.0091,4.4934,1.3234,92.09,91.91,842.0,0.05,0.4,0.0,0.0,84.2,8.42,0.0
03:07:00,4.9250,0.0091,4.4986,1.3244,92.19,91.98,835.0,0.04,0.3,0.0,0.0,83.5,8.35,0.0
03:07:30,3.3090,0.9990,4.5250,1.3316,92.74,92.48,837.0,3.31,27.6,0.11,1.1,83.7,8.37,0.32
03:08:00,3.3440,1.0045,4.5428,1.3371,93.10,92.86,828.0,3.36,28.0,0.12,1.2,82.8,8.28,0.33
03:08:30,5.1300,0.0091,4.5526,1.3400,93.30,93.06,840.0,0.05,0.4,0.0,0.0,84.0,8.4,0.0
03:09:00,5.0390,0.3430,4.5736,1.3444,93.73,93.37,851.0,1.73,14.4,0.06,0.6,85.1,8.51,0.16
03:09:30,2.9480,0.7181,4.5798,1.3465,93.86,93.51,849.0,2.12,17.7,0.07,0.7,84.9,8.49,0.2
03:10:00,2.2920,0.1925,4.5835,1.3481,93.93,93.63,167.1,0.44,3.7,0.02,0.2,16.7,1.671,0.21
03:10:30,2.2890,0.1766,4.5869,1.3496,94.00,93.73,161.6,0.4,3.3,0.01,0.1,16.2,1.616,0.2
03:11:00,2.3080,0.1892,4.5904,1.3511,94.08,93.84,161.3,0.44,3.7,0.02,0.2,16.1,1.613,0.22
03:11:30,2.3110,0.1917,4.5941,1.3527,94.15,93.95,172.3,0.44,3.7,0.02,0.2,17.2,1.723,0.21
03:12:00,2.3150,0.2088,4.5981,1.3544,94.23,94.07,195.1,0.48,4.0,0.02,0.2,19.5,1.951,0.2
03:12:30,2.3570,0.3589,4.6035,1.3568,94.34,94.23,434.0,0.85,7.1,0.03,0.3,43.4,4.34,0.16
03:13:00,2.4830,0.5895,4.6118,1.3602,94.51,94.47,737.0,1.46,12.2,0.05,0.5,73.7,7.37,0.16
03:13:30,2.5220,0.6766,4.6265,1.3660,94.81,94.87,866.0,1.71,14.2,0.06,0.6,86.6,8.66,0.16
03:14:00,2.4990,0.6758,4.6404,1.3715,95.10,95.25,860.0,1.69,14.1,0.06,0.6,86.0,8.6,0.16
03:14:30,2.5110,0.6739,4.6542,1.3771,95.38,95.64,859.0,1.69,14.1,0.06,0.6,85.9,8.59,0.16
03:15:00,2.6010,0.7664,4.6694,1.3830,95.69,96.05,855.0,1.99,16.6,0.07,0.7,85.5,8.55,0.19
03:15:30,5.2190,0.0092,4.6881,1.3878,96.08,96.38,855.0,0.05,0.4,0.0,0.0,85.5,8.55,0.0
03:16:00,5.1510,0.0092,4.7106,1.3924,96.54,96.70,857.0,0.05,0.4,0.0,0.0,85.7,8.57,0.0
03:16:30,5.1750,0.0093,4.7288,1.3962,96.91,96.97,854.0,0.05,0.4,0.0,0.0,85.4,8.54,0.0
03:17:00,4.9330,0.0091,4.7292,1.3963,96.92,96.97,847.0,0.04,0.3,0.0,0.0,84.7,8.47,0.0
03:17:30,4.9440,0.0092,4.7378,1.3981,97.10,97.10,781.0,0.05,0.4,0.0,0.0,78.1,7.81,0.01
03:18:00,4.9950,0.7709,4.7497,1.4005,97.34,97.26,849.0,3.85,32.1,0.13,1.3,84.9,8.49,0.37
03:18:30,4.8890,0.1210,4.7516,1.4009,97.38,97.29,825.0,0.59,4.9,0.02,0.2,82.5,8.25,0.06
03:19:00,4.9230,1.2178,4.7685,1.4043,97.72,97.53,817.0,6.0,50.0,0.21,2.1,81.7,8.17,0.59
03:19:30,5.2220,0.0091,4.7746,1.4055,97.85,97.61,801.0,0.05,0.4,0.0,0.0,80.1,8.01,0.01
03:20:00,5.0520,0.2003,4.7777,1.4061,97.91,97.66,819.0,1.01,8.4,0.04,0.4,81.9,8.19,0.1
03:20:30,4.9210,0.7539,4.7883,1.4083,98.13,97.81,812.0,3.71,30.9,0.13,1.3,81.2,8.12,0.37
03:21:00,5.0140,0.0090,4.7886,1.4084,98.14,97.81,767.0,0.05,0.4,0.0,0.0,76.7,7.67,0.01
03:21:30,2.7950,0.7985,4.8109,1.4157,98.59,98.32,827.0,2.23,18.6,0.08,0.8,82.7,8.27,0.22
03:22:00,2.6070,0.6838,4.8272,1.4219,98.93,98.75,809.0,1.78,14.8,0.06,0.6,80.9,8.09,0.18
03:22:30,2.3170,0.2904,4.8392,1.4266,99.17,99.08,506.0,0.67,5.6,0.02,0.2,50.6,5.06,0.11
03:23:00,2.3040,0.2293,4.8459,1.4294,99.31,99.27,166.1,0.53,4.4,0.02,0.2,16.6,1.661,0.26
03:23:30,2.9140,0.8675,4.8637,1.4359,99.68,99.72,829.0,2.53,21.1,0.09,0.9,82.9,8.29,0.25
03:24:00,2.3250,0.2820,4.8813,1.4407,100.04,100.05,724.0,0.66,5.5,0.02,0.2,72.4,7.24,0.07