File: output/5/ravpower-2.csv
Time,Voltage(V),Current(A),Energy(Wh),Capacity(Ah),Energy Proportion(%),Capacity Proportion(%),Irradiance(W/m2),Power(W),Power Score,Watts/oz,cW/oz,Sun Score,Irradiance/100,Efficiency(%)
00:00:00,4.4370,2.0004,0.0247,0.0056,1.04,0.91,803.0,8.88,111.0,0.56,5.6,80.3,8.03,1.01
00:00:10,5.2970,0.0496,0.0254,0.0057,1.07,0.94,807.0,0.26,3.3,0.02,0.2,80.7,8.07,0.03
00:00:20,4.3780,2.0010,0.0497,0.0113,2.09,1.85,810.0,8.76,109.5,0.55,5.5,81.0,8.1,0.98
00:00:30,5.2980,0.1421,0.0518,0.0116,2.18,1.91,803.0,0.75,9.4,0.05,0.5,80.3,8.03,0.08
00:00:40,4.3100,2.0011,0.0758,0.0172,3.19,2.83,811.0,8.62,107.7,0.54,5.4,81.1,8.11,0.97
00:00:50,4.2870,1.9583,0.0991,0.0226,4.17,3.72,796.0,8.4,105.0,0.53,5.3,79.6,7.96,0.96
00:01:00,4.2320,2.0015,0.1226,0.0282,5.16,4.64,783.0,8.47,105.9,0.53,5.3,78.3,7.83,0.98
00:01:10,4.1660,2.0016,0.1458,0.0338,6.13,5.55,777.0,8.34,104.3,0.52,5.2,77.7,7.77,0.98
00:01:20,4.1800,2.0009,0.1690,0.0393,7.11,6.46,774.0,8.36,104.5,0.52,5.2,77.4,7.74,0.98
00:01:30,4.1760,2.0000,0.1922,0.0449,8.09,7.38,792.0,8.35,104.4,0.52,5.2,79.2,7.92,0.96
00:01:40,4.1820,2.0017,0.2155,0.0504,9.06,8.29,797.0,8.37,104.6,0.52,5.2,79.7,7.97,0.95
00:01:50,5.3060,0.0092,0.2156,0.0505,9.07,8.29,800.0,0.05,0.6,0.0,0.0,80.0,8.0,0.01
00:02:00,4.2580,1.9120,0.2382,0.0558,10.02,9.17,802.0,8.14,101.8,0.51,5.1,80.2,8.02,0.92
00:02:10,5.3070,0.0092,0.2384,0.0558,10.03,9.17,801.0,0.05,0.6,0.0,0.0,80.1,8.01,0.01
00:02:20,4.1240,1.9993,0.2613,0.0614,10.99,10.08,798.0,8.25,103.1,0.52,5.2,79.8,7.98,0.94
00:02:30,4.1120,1.9979,0.2841,0.0669,11.95,11.00,794.0,8.22,102.8,0.51,5.1,79.4,7.94,0.94
00:02:40,5.3050,0.0091,0.2842,0.0669,11.96,11.00,801.0,0.05,0.6,0.0,0.0,80.1,8.01,0.01
00:02:50,5.3040,0.0982,0.2857,0.0672,12.02,11.05,794.0,0.52,6.5,0.03,0.3,79.4,7.94,0.06
00:03:00,5.3040,0.0092,0.2858,0.0672,12.02,11.05,798.0,0.05,0.6,0.0,0.0,79.8,7.98,0.01
00:03:10,5.3050,0.0092,0.2859,0.0673,12.03,11.05,804.0,0.05,0.6,0.0,0.0,80.4,8.04,0.01
00:03:20,4.0950,1.9976,0.3086,0.0728,12.98,11.97,811.0,8.18,102.3,0.51,5.1,81.1,8.11,0.92
00:03:30,5.3040,0.0092,0.3088,0.0728,12.99,11.97,811.0,0.05,0.6,0.0,0.0,81.1,8.11,0.01
00:03:40,4.0720,2.0002,0.3314,0.0784,13.94,12.88,812.0,8.14,101.8,0.51,5.1,81.2,8.12,0.91
00:03:50,5.3050,0.0092,0.3315,0.0784,13.95,12.89,813.0,0.05,0.6,0.0,0.0,81.3,8.13,0.01
00:04:00,5.3060,0.0093,0.3317,0.0784,13.95,12.89,811.0,0.05,0.6,0.0,0.0,81.1,8.11,0.01
00:04:10,4.0870,1.9999,0.3544,0.0840,14.91,13.81,812.0,8.17,102.1,0.51,5.1,81.2,8.12,0.91
00:04:20,4.0600,2.0011,0.3770,0.0896,15.86,14.72,812.0,8.12,101.5,0.51,5.1,81.2,8.12,0.91
00:04:30,5.3040,0.0091,0.3771,0.0896,15.86,14.72,811.0,0.05,0.6,0.0,0.0,81.1,8.11,0.01
00:04:40,4.0300,1.9996,0.3995,0.0951,16.80,15.64,807.0,8.06,100.8,0.5,5.0,80.7,8.07,0.91
00:04:50,5.1110,0.6044,0.4081,0.0968,17.16,15.91,805.0,3.09,38.6,0.19,1.9,80.5,8.05,0.35
00:05:00,5.2730,0.1768,0.4106,0.0973,17.27,15.99,804.0,0.93,11.6,0.06,0.6,80.4,8.04,0.11
00:05:10,5.3030,0.0092,0.4108,0.0973,17.28,16.00,803.0,0.05,0.6,0.0,0.0,80.3,8.03,0.01
00:05:20,5.2980,0.0236,0.4111,0.0974,17.29,16.01,802.0,0.13,1.6,0.01,0.1,80.2,8.02,0.01
00:05:30,3.9650,2.0011,0.4332,0.1029,18.22,16.92,801.0,7.93,99.1,0.5,5.0,80.1,8.01,0.9
00:05:40,3.9160,1.9982,0.4549,0.1085,19.14,17.83,801.0,7.82,97.8,0.49,4.9,80.1,8.01,0.89
00:05:50,5.3030,0.0091,0.4550,0.1085,19.14,17.84,798.0,0.05,0.6,0.0,0.0,79.8,7.98,0.01
00:06:00,5.3000,0.0978,0.4565,0.1088,19.20,17.88,795.0,0.52,6.5,0.03,0.3,79.5,7.95,0.06
00:06:10,3.9060,2.0005,0.4782,0.1144,20.11,18.80,789.0,7.81,97.6,0.49,4.9,78.9,7.89,0.9
00:06:20,3.8960,2.0003,0.4998,0.1199,21.03,19.71,789.0,7.79,97.4,0.49,4.9,78.9,7.89,0.9
00:06:30,3.8790,1.9999,0.5214,0.1255,21.93,20.62,789.0,7.76,97.0,0.49,4.9,78.9,7.89,0.89
00:06:40,4.0900,1.6739,0.5404,0.1301,22.73,21.39,788.0,6.85,85.6,0.43,4.3,78.8,7.88,0.79
00:06:50,3.8800,1.9990,0.5619,0.1357,23.64,22.30,785.0,7.76,97.0,0.49,4.9,78.5,7.85,0.9
00:07:00,3.8740,1.9966,0.5834,0.1412,24.54,23.21,784.0,7.73,96.6,0.48,4.8,78.4,7.84,0.9
00:07:10,3.8700,1.9966,0.6049,0.1468,25.44,24.12,785.0,7.73,96.6,0.48,4.8,78.5,7.85,0.9
00:07:20,3.8650,1.9947,0.6263,0.1523,26.35,25.03,783.0,7.71,96.4,0.48,4.8,78.3,7.83,0.9
00:07:30,3.8480,1.9985,0.6477,0.1579,27.24,25.95,780.0,7.69,96.1,0.48,4.8,78.0,7.8,0.9
00:07:40,3.8350,1.9971,0.6689,0.1634,28.14,26.86,777.0,7.66,95.8,0.48,4.8,77.7,7.77,0.9
00:07:50,3.8290,1.9978,0.6902,0.1689,29.03,27.77,784.0,7.65,95.6,0.48,4.8,78.4,7.84,0.89
00:08:00,3.8080,1.9868,0.7112,0.1745,29.92,28.68,786.0,7.57,94.6,0.47,4.7,78.6,7.86,0.88
00:08:10,5.3080,0.0093,0.7113,0.1745,29.92,28.68,785.0,0.05,0.6,0.0,0.0,78.5,7.85,0.01
00:08:20,3.7930,1.9751,0.7322,0.1800,30.80,29.58,782.0,7.49,93.6,0.47,4.7,78.2,7.82,0.87
00:08:30,5.3050,0.0078,0.7323,0.1800,30.80,29.59,781.0,0.04,0.5,0.0,0.0,78.1,7.81,0.0
00:08:40,3.8210,1.9923,0.7534,0.1855,31.69,30.50,781.0,7.61,95.1,0.48,4.8,78.1,7.81,0.89
00:08:50,3.8180,1.9893,0.7745,0.1911,32.58,31.40,782.0,7.6,95.0,0.48,4.8,78.2,7.82,0.88
00:09:00,3.7950,1.9778,0.7954,0.1966,33.46,32.31,781.0,7.51,93.9,0.47,4.7,78.1,7.81,0.87
00:09:10,5.3080,0.0092,0.7955,0.1966,33.46,32.31,780.0,0.05,0.6,0.0,0.0,78.0,7.8,0.01
00:09:20,3.8060,1.9827,0.8165,0.2021,34.34,33.22,779.0,7.55,94.4,0.47,4.7,77.9,7.79,0.88
00:09:30,5.3100,0.0092,0.8166,0.2021,34.35,33.22,777.0,0.05,0.6,0.0,0.0,77.7,7.77,0.01
00:09:40,5.3060,0.0087,0.8167,0.2021,34.36,33.23,773.0,0.05,0.6,0.0,0.0,77.3,7.73,0.01
00:09:50,5.3070,0.0092,0.8169,0.2022,34.36,33.23,774.0,0.05,0.6,0.0,0.0,77.4,7.74,0.01
00:10:00,5.2410,0.0074,0.8170,0.2022,34.37,33.23,775.0,0.04,0.5,0.0,0.0,77.5,7.75,0.0
00:10:10,5.3060,0.0092,0.8171,0.2022,34.37,33.24,776.0,0.05,0.6,0.0,0.0,77.6,7.76,0.01
00:10:20,4.5250,0.0050,0.8172,0.2022,34.37,33.24,774.0,0.02,0.3,0.0,0.0,77.4,7.74,0.0
00:10:30,5.3050,0.0091,0.8173,0.2022,34.38,33.24,773.0,0.05,0.6,0.0,0.0,77.3,7.73,0.01
00:10:40,5.3040,0.0090,0.8174,0.2023,34.38,33.25,773.0,0.05,0.6,0.0,0.0,77.3,7.73,0.01
00:10:50,5.2550,0.0080,0.8175,0.2023,34.39,33.25,773.0,0.04,0.5,0.0,0.0,77.3,7.73,0.0
00:11:00,5.3040,0.0072,0.8177,0.2023,34.39,33.25,772.0,0.04,0.5,0.0,0.0,77.2,7.72,0.0
00:11:10,4.9840,0.0055,0.8177,0.2023,34.40,33.26,771.0,0.03,0.4,0.0,0.0,77.1,7.71,0.0
00:11:20,4.3570,0.0048,0.8178,0.2023,34.40,33.26,772.0,0.02,0.3,0.0,0.0,77.2,7.72,0.0
00:11:30,4.4950,0.0048,0.8178,0.2024,34.40,33.26,778.0,0.02,0.3,0.0,0.0,77.8,7.78,0.0
00:11:40,4.2700,0.0046,0.8179,0.2024,34.40,33.26,783.0,0.02,0.3,0.0,0.0,78.3,7.83,0.0
00:11:50,4.2930,0.0045,0.8180,0.2024,34.41,33.27,780.0,0.02,0.3,0.0,0.0,78.0,7.8,0.0
00:12:00,4.2480,0.0046,0.8180,0.2024,34.41,33.27,782.0,0.02,0.3,0.0,0.0,78.2,7.82,0.0
00:12:10,4.2460,0.0045,0.8181,0.2024,34.41,33.27,783.0,0.02,0.3,0.0,0.0,78.3,7.83,0.0
00:12:20,4.1680,0.0045,0.8181,0.2024,34.41,33.27,781.0,0.02,0.3,0.0,0.0,78.1,7.81,0.0
00:12:30,4.1900,0.0045,0.8182,0.2024,34.42,33.27,777.0,0.02,0.3,0.0,0.0,77.7,7.77,0.0
00:12:40,4.1750,0.0045,0.8182,0.2024,34.42,33.28,779.0,0.02,0.3,0.0,0.0,77.9,7.79,0.0
00:12:50,4.2120,0.0044,0.8183,0.2025,34.42,33.28,778.0,0.02,0.3,0.0,0.0,77.8,7.78,0.0
00:13:00,4.1670,0.0045,0.8183,0.2025,34.42,33.28,775.0,0.02,0.3,0.0,0.0,77.5,7.75,0.0
00:13:10,4.1660,0.0044,0.8184,0.2025,34.42,33.28,780.0,0.02,0.3,0.0,0.0,78.0,7.8,0.0
00:13:20,4.1330,0.0044,0.8184,0.2025,34.43,33.28,777.0,0.02,0.3,0.0,0.0,77.7,7.77,0.0
00:13:30,4.0970,0.0044,0.8185,0.2025,34.43,33.29,775.0,0.02,0.3,0.0,0.0,77.5,7.75,0.0
00:13:40,4.1720,0.0044,0.8185,0.2025,34.43,33.29,774.0,0.02,0.3,0.0,0.0,77.4,7.74,0.0
00:13:50,4.1230,0.0044,0.8186,0.2025,34.43,33.29,775.0,0.02,0.3,0.0,0.0,77.5,7.75,0.0
00:14:00,4.1690,0.0045,0.8186,0.2025,34.44,33.29,773.0,0.02,0.3,0.0,0.0,77.3,7.73,0.0
00:14:10,4.1540,0.0045,0.8187,0.2026,34.44,33.29,778.0,0.02,0.3,0.0,0.0,77.8,7.78,0.0
00:14:20,4.1700,0.0045,0.8187,0.2026,34.44,33.30,783.0,0.02,0.3,0.0,0.0,78.3,7.83,0.0
00:14:30,4.1630,0.0045,0.8188,0.2026,34.44,33.30,781.0,0.02,0.3,0.0,0.0,78.1,7.81,0.0
00:14:40,4.1700,0.0045,0.8188,0.2026,34.44,33.30,786.0,0.02,0.3,0.0,0.0,78.6,7.86,0.0
00:14:50,4.1990,0.0045,0.8189,0.2026,34.45,33.30,784.0,0.02,0.3,0.0,0.0,78.4,7.84,0.0
00:15:00,4.1500,0.0045,0.8189,0.2026,34.45,33.30,782.0,0.02,0.3,0.0,0.0,78.2,7.82,0.0
00:15:10,4.1750,0.0046,0.8190,0.2026,34.45,33.31,780.0,0.02,0.3,0.0,0.0,78.0,7.8,0.0
00:15:20,4.1920,0.0045,0.8190,0.2026,34.45,33.31,783.0,0.02,0.3,0.0,0.0,78.3,7.83,0.0
00:15:30,4.1860,0.0045,0.8191,0.2027,34.46,33.31,783.0,0.02,0.3,0.0,0.0,78.3,7.83,0.0
00:15:40,4.1810,0.0045,0.8192,0.2027,34.46,33.31,790.0,0.02,0.3,0.0,0.0,79.0,7.9,0.0
00:15:50,4.2040,0.0045,0.8192,0.2027,34.46,33.32,789.0,0.02,0.3,0.0,0.0,78.9,7.89,0.0
00:16:00,4.2300,0.0045,0.8193,0.2027,34.46,33.32,787.0,0.02,0.3,0.0,0.0,78.7,7.87,0.0
00:16:10,4.2690,0.0046,0.8193,0.2027,34.46,33.32,784.0,0.02,0.3,0.0,0.0,78.4,7.84,0.0
00:16:20,4.2770,0.0046,0.8194,0.2027,34.47,33.32,781.0,0.02,0.3,0.0,0.0,78.1,7.81,0.0
00:16:30,4.3240,0.0046,0.8194,0.2027,34.47,33.32,793.0,0.02,0.3,0.0,0.0,79.3,7.93,0.0
00:16:40,4.2790,0.0047,0.8195,0.2027,34.47,33.33,791.0,0.02,0.3,0.0,0.0,79.1,7.91,0.0
00:16:50,4.4310,0.0048,0.8195,0.2028,34.47,33.33,787.0,0.02,0.3,0.0,0.0,78.7,7.87,0.0
00:17:00,5.3030,0.0092,0.8197,0.2028,34.48,33.33,791.0,0.05,0.6,0.0,0.0,79.1,7.91,0.01
00:17:10,5.3000,0.0083,0.8198,0.2028,34.48,33.34,792.0,0.04,0.5,0.0,0.0,79.2,7.92,0.0
00:17:20,5.3020,0.0072,0.8199,0.2028,34.49,33.34,795.0,0.04,0.5,0.0,0.0,79.5,7.95,0.0
00:17:30,3.6900,2.0003,0.8404,0.2084,35.35,34.25,796.0,7.38,92.3,0.46,4.6,79.6,7.96,0.84
00:17:40,5.1890,0.0066,0.8405,0.2084,35.36,34.26,790.0,0.03,0.4,0.0,0.0,79.0,7.9,0.0
00:17:50,5.3020,0.0092,0.8406,0.2084,35.36,34.26,793.0,0.05,0.6,0.0,0.0,79.3,7.93,0.01
00:18:00,3.7760,1.9992,0.8616,0.2140,36.24,35.17,794.0,7.55,94.4,0.47,4.7,79.4,7.94,0.86
00:18:10,4.5970,0.0056,0.8617,0.2140,36.25,35.17,792.0,0.03,0.4,0.0,0.0,79.2,7.92,0.0
00:18:20,4.6300,0.0053,0.8617,0.2140,36.25,35.18,791.0,0.02,0.3,0.0,0.0,79.1,7.91,0.0
00:18:30,4.4310,0.0051,0.8618,0.2140,36.25,35.18,790.0,0.02,0.3,0.0,0.0,79.0,7.9,0.0
00:18:40,4.2610,0.0046,0.8619,0.2140,36.25,35.18,787.0,0.02,0.3,0.0,0.0,78.7,7.87,0.0
00:18:50,4.2600,0.0047,0.8619,0.2141,36.26,35.18,785.0,0.02,0.3,0.0,0.0,78.5,7.85,0.0
00:19:00,4.2760,0.0046,0.8620,0.2141,36.26,35.19,788.0,0.02,0.3,0.0,0.0,78.8,7.88,0.0
00:19:10,4.2660,0.0046,0.8620,0.2141,36.26,35.19,788.0,0.02,0.3,0.0,0.0,78.8,7.88,0.0
00:19:20,4.2250,0.0046,0.8621,0.2141,36.26,35.19,789.0,0.02,0.3,0.0,0.0,78.9,7.89,0.0
00:19:30,4.2350,0.0046,0.8621,0.2141,36.27,35.19,790.0,0.02,0.3,0.0,0.0,79.0,7.9,0.0
00:19:40,4.2010,0.0045,0.8622,0.2141,36.27,35.19,789.0,0.02,0.3,0.0,0.0,78.9,7.89,0.0
00:19:50,4.1470,0.0044,0.8622,0.2141,36.27,35.20,791.0,0.02,0.3,0.0,0.0,79.1,7.91,0.0
00:20:00,4.1320,0.0044,0.8623,0.2141,36.27,35.20,786.0,0.02,0.3,0.0,0.0,78.6,7.86,0.0
00:20:10,4.1240,0.0044,0.8623,0.2142,36.27,35.20,789.0,0.02,0.3,0.0,0.0,78.9,7.89,0.0
00:20:20,4.1770,0.0044,0.8624,0.2142,36.28,35.20,786.0,0.02,0.3,0.0,0.0,78.6,7.86,0.0
00:20:30,4.1620,0.0045,0.8624,0.2142,36.28,35.20,785.0,0.02,0.3,0.0,0.0,78.5,7.85,0.0
00:20:40,4.2590,0.0045,0.8625,0.2142,36.28,35.21,788.0,0.02,0.3,0.0,0.0,78.8,7.88,0.0
00:20:50,4.2500,0.0045,0.8625,0.2142,36.28,35.21,786.0,0.02,0.3,0.0,0.0,78.6,7.86,0.0
00:21:00,4.2910,0.0046,0.8626,0.2142,36.28,35.21,787.0,0.02,0.3,0.0,0.0,78.7,7.87,0.0
00:21:10,4.2540,0.0045,0.8627,0.2142,36.29,35.21,782.0,0.02,0.3,0.0,0.0,78.2,7.82,0.0
00:21:20,4.4950,0.0048,0.8627,0.2142,36.29,35.21,776.0,0.02,0.3,0.0,0.0,77.6,7.76,0.0
00:21:30,5.3020,0.0092,0.8628,0.2143,36.30,35.22,794.0,0.05,0.6,0.0,0.0,79.4,7.94,0.01
00:21:40,4.4230,0.0050,0.8629,0.2143,36.30,35.22,786.0,0.02,0.3,0.0,0.0,78.6,7.86,0.0
00:21:50,4.2250,0.0046,0.8630,0.2143,36.30,35.22,595.0,0.02,0.3,0.0,0.0,59.5,5.95,0.0
00:22:00,4.4080,0.0047,0.8630,0.2143,36.30,35.23,709.0,0.02,0.3,0.0,0.0,70.9,7.09,0.0
00:22:10,5.3000,0.0088,0.8632,0.2143,36.31,35.23,801.0,0.05,0.6,0.0,0.0,80.1,8.01,0.01
00:22:20,5.2980,0.0092,0.8633,0.2144,36.31,35.23,810.0,0.05,0.6,0.0,0.0,81.0,8.1,0.01
00:22:30,5.2890,0.0075,0.8634,0.2144,36.32,35.24,810.0,0.04,0.5,0.0,0.0,81.0,8.1,0.0
00:22:40,4.3100,0.0046,0.8635,0.2144,36.32,35.24,808.0,0.02,0.3,0.0,0.0,80.8,8.08,0.0
00:22:50,4.2740,0.0046,0.8635,0.2144,36.32,35.24,810.0,0.02,0.3,0.0,0.0,81.0,8.1,0.0
00:23:00,4.2250,0.0045,0.8636,0.2144,36.33,35.24,811.0,0.02,0.3,0.0,0.0,81.1,8.11,0.0
00:23:10,4.2160,0.0045,0.8636,0.2144,36.33,35.25,813.0,0.02,0.3,0.0,0.0,81.3,8.13,0.0
00:23:20,4.1470,0.0045,0.8637,0.2144,36.33,35.25,817.0,0.02,0.3,0.0,0.0,81.7,8.17,0.0
00:23:30,4.1920,0.0045,0.8637,0.2145,36.33,35.25,818.0,0.02,0.3,0.0,0.0,81.8,8.18,0.0
00:23:40,4.1990,0.0045,0.8638,0.2145,36.33,35.25,827.0,0.02,0.3,0.0,0.0,82.7,8.27,0.0
00:23:50,5.2090,0.0092,0.8639,0.2145,36.34,35.26,761.0,0.05,0.6,0.0,0.0,76.1,7.61,0.01
00:24:00,5.2050,0.0091,0.8640,0.2145,36.35,35.26,581.0,0.05,0.6,0.0,0.0,58.1,5.81,0.01
00:24:10,4.3590,0.8566,0.8744,0.2169,36.78,35.65,516.0,3.73,46.6,0.23,2.3,51.6,5.16,0.66
00:24:20,1.9840,0.1061,0.8750,0.2172,36.81,35.70,257.0,0.21,2.6,0.01,0.1,25.7,2.57,0.07
00:24:30,1.9810,0.1132,0.8756,0.2175,36.83,35.75,212.0,0.22,2.8,0.01,0.1,21.2,2.12,0.09
00:24:40,1.9660,0.1048,0.8762,0.2178,36.86,35.80,214.0,0.21,2.6,0.01,0.1,21.4,2.14,0.09
00:24:50,1.9750,0.1205,0.8768,0.2181,36.88,35.85,217.0,0.24,3.0,0.02,0.2,21.7,2.17,0.1
00:25:00,4.1220,0.0044,0.8769,0.2181,36.89,35.86,370.0,0.02,0.3,0.0,0.0,37.0,3.7,0.0
00:25:10,4.0070,2.0024,0.8992,0.2237,37.82,36.77,822.0,8.02,100.3,0.5,5.0,82.2,8.22,0.89
00:25:20,4.0000,2.0039,0.9215,0.2293,38.76,37.69,873.0,8.02,100.3,0.5,5.0,87.3,8.73,0.84
00:25:30,3.9760,2.0043,0.9436,0.2348,39.69,38.60,857.0,7.97,99.6,0.5,5.0,85.7,8.57,0.85
00:25:40,3.9510,2.0024,0.9656,0.2404,40.62,39.51,853.0,7.91,98.9,0.49,4.9,85.3,8.53,0.84
00:25:50,3.8470,2.0011,0.9869,0.2460,41.52,40.43,853.0,7.7,96.3,0.48,4.8,85.3,8.53,0.82
00:26:00,3.7810,1.9736,1.0077,0.2514,42.39,41.33,825.0,7.46,93.3,0.47,4.7,82.5,8.25,0.82
00:26:10,5.3090,0.0092,1.0078,0.2515,42.39,41.33,682.0,0.05,0.6,0.0,0.0,68.2,6.82,0.01
00:26:20,3.9750,2.0003,1.0299,0.2570,43.32,42.25,856.0,7.95,99.4,0.5,5.0,85.6,8.56,0.84
00:26:30,3.9440,1.9987,1.0518,0.2626,44.24,43.16,852.0,7.88,98.5,0.49,4.9,85.2,8.52,0.84
00:26:40,3.9120,1.9979,1.0735,0.2681,45.16,44.07,823.0,7.82,97.8,0.49,4.9,82.3,8.23,0.86
00:26:50,3.9280,1.9974,1.0953,0.2737,46.07,44.98,838.0,7.85,98.1,0.49,4.9,83.8,8.38,0.85
00:27:00,3.9360,1.9979,1.1171,0.2792,46.99,45.90,857.0,7.86,98.3,0.49,4.9,85.7,8.57,0.83
00:27:10,3.9180,1.9999,1.1389,0.2848,47.91,46.81,854.0,7.84,98.0,0.49,4.9,85.4,8.54,0.83
00:27:20,2.0320,0.2332,1.1402,0.2854,47.96,46.92,587.0,0.47,5.9,0.03,0.3,58.7,5.87,0.07
00:27:30,1.9090,0.1089,1.1408,0.2857,47.99,46.97,209.0,0.21,2.6,0.01,0.1,20.9,2.09,0.09
00:27:40,2.2160,0.2544,1.1424,0.2864,48.05,47.08,271.0,0.56,7.0,0.04,0.4,27.1,2.71,0.19
00:27:50,5.1090,0.0092,1.1425,0.2865,48.06,47.09,233.0,0.05,0.6,0.0,0.0,23.3,2.33,0.02
00:28:00,1.9840,0.1447,1.1433,0.2869,48.09,47.15,231.0,0.29,3.6,0.02,0.2,23.1,2.31,0.11
00:28:10,4.8920,0.2228,1.1463,0.2875,48.22,47.25,209.0,1.09,13.6,0.07,0.7,20.9,2.09,0.47
00:28:20,3.9480,1.9996,1.1683,0.2930,49.14,48.17,625.0,7.89,98.6,0.49,4.9,62.5,6.25,1.15
00:28:30,3.9970,2.0012,1.1905,0.2986,50.08,49.08,840.0,8.0,100.0,0.5,5.0,84.0,8.4,0.87
00:28:40,5.3050,0.0092,1.1906,0.2986,50.08,49.08,830.0,0.05,0.6,0.0,0.0,83.0,8.3,0.01
00:28:50,3.9790,2.0029,1.2127,0.3042,51.01,50.00,825.0,7.97,99.6,0.5,5.0,82.5,8.25,0.88
00:29:00,3.9580,1.9992,1.2347,0.3097,51.94,50.91,817.0,7.91,98.9,0.49,4.9,81.7,8.17,0.88
00:29:10,3.9090,1.9967,1.2564,0.3153,52.85,51.82,820.0,7.81,97.6,0.49,4.9,82.0,8.2,0.87
00:29:20,5.3100,0.0090,1.2565,0.3153,52.86,51.83,817.0,0.05,0.6,0.0,0.0,81.7,8.17,0.01
00:29:30,3.9330,1.9969,1.2784,0.3209,53.77,52.74,814.0,7.85,98.1,0.49,4.9,81.4,8.14,0.88
00:29:40,5.3110,0.0092,1.2785,0.3209,53.78,52.74,807.0,0.05,0.6,0.0,0.0,80.7,8.07,0.01
00:29:50,3.9290,2.0001,1.3003,0.3264,54.70,53.66,808.0,7.86,98.3,0.49,4.9,80.8,8.08,0.88
00:30:00,3.9170,1.9969,1.3220,0.3320,55.61,54.57,808.0,7.82,97.8,0.49,4.9,80.8,8.08,0.88
00:30:10,3.9370,1.9979,1.3439,0.3375,56.53,55.48,810.0,7.87,98.4,0.49,4.9,81.0,8.1,0.88
00:30:20,3.9140,1.9976,1.3656,0.3431,57.44,56.39,806.0,7.82,97.8,0.49,4.9,80.6,8.06,0.88
00:30:30,3.8920,1.9956,1.3872,0.3486,58.35,57.30,798.0,7.77,97.1,0.49,4.9,79.8,7.98,0.89
00:30:40,5.3080,0.0091,1.3873,0.3487,58.36,57.31,795.0,0.05,0.6,0.0,0.0,79.5,7.95,0.01
00:30:50,3.8100,1.9920,1.4084,0.3542,59.24,58.22,794.0,7.59,94.9,0.47,4.7,79.4,7.94,0.87
00:31:00,5.3040,0.1613,1.4108,0.3546,59.34,58.29,788.0,0.86,10.8,0.05,0.5,78.8,7.88,0.1
00:31:10,3.8740,1.9961,1.4323,0.3602,60.25,59.20,785.0,7.73,96.6,0.48,4.8,78.5,7.85,0.9
00:31:20,3.8820,1.9960,1.4538,0.3657,61.15,60.11,791.0,7.75,96.9,0.48,4.8,79.1,7.91,0.89
00:31:30,3.8860,1.9986,1.4754,0.3713,62.06,61.03,793.0,7.77,97.1,0.49,4.9,79.3,7.93,0.89
00:31:40,3.8580,1.9961,1.4968,0.3768,62.96,61.94,794.0,7.7,96.3,0.48,4.8,79.4,7.94,0.88
00:31:50,3.8590,1.9944,1.5181,0.3824,63.86,62.85,789.0,7.7,96.3,0.48,4.8,78.9,7.89,0.89
00:32:00,5.3090,0.0092,1.5183,0.3824,63.87,62.85,789.0,0.05,0.6,0.0,0.0,78.9,7.89,0.01
00:32:10,3.8600,1.9972,1.5397,0.3879,64.77,63.76,787.0,7.71,96.4,0.48,4.8,78.7,7.87,0.89
00:32:20,3.8470,1.9965,1.5610,0.3935,65.66,64.68,789.0,7.68,96.0,0.48,4.8,78.9,7.89,0.88
00:32:30,3.8210,1.9920,1.5822,0.3990,66.55,65.59,786.0,7.61,95.1,0.48,4.8,78.6,7.86,0.88
00:32:40,5.3050,0.0092,1.5823,0.3990,66.56,65.59,780.0,0.05,0.6,0.0,0.0,78.0,7.8,0.01
00:32:50,3.8140,1.9890,1.6034,0.4046,67.44,66.50,775.0,7.59,94.9,0.47,4.7,77.5,7.75,0.89
00:33:00,5.3060,0.0091,1.6035,0.4046,67.45,66.50,773.0,0.05,0.6,0.0,0.0,77.3,7.73,0.01
00:33:10,5.3100,0.0092,1.6036,0.4046,67.46,66.51,769.0,0.05,0.6,0.0,0.0,76.9,7.69,0.01
00:33:20,3.7950,1.9772,1.6245,0.4101,68.33,67.41,768.0,7.5,93.8,0.47,4.7,76.8,7.68,0.89
00:33:30,5.3040,0.0086,1.6246,0.4101,68.34,67.41,764.0,0.05,0.6,0.0,0.0,76.4,7.64,0.01
00:33:40,5.1610,0.2676,1.6284,0.4109,68.50,67.54,764.0,1.38,17.3,0.09,0.9,76.4,7.64,0.16
00:33:50,5.3040,0.0440,1.6291,0.4110,68.53,67.56,762.0,0.23,2.9,0.01,0.1,76.2,7.62,0.03
00:34:00,3.7980,1.9809,1.6500,0.4165,69.41,68.46,770.0,7.52,94.0,0.47,4.7,77.0,7.7,0.89
00:34:10,3.8080,1.9666,1.6708,0.4220,70.28,69.36,770.0,7.49,93.6,0.47,4.7,77.0,7.7,0.88
00:34:20,3.7640,1.9614,1.6913,0.4274,71.14,70.25,770.0,7.38,92.3,0.46,4.6,77.0,7.7,0.87
00:34:30,3.8100,1.9791,1.7122,0.4329,72.02,71.16,766.0,7.54,94.3,0.47,4.7,76.6,7.66,0.89
00:34:40,5.3060,0.0091,1.7124,0.4329,72.03,71.16,764.0,0.05,0.6,0.0,0.0,76.4,7.64,0.01
00:34:50,5.2240,0.0239,1.7127,0.4330,72.05,71.17,765.0,0.12,1.5,0.01,0.1,76.5,7.65,0.01
00:35:00,3.8070,1.9861,1.7337,0.4385,72.93,72.08,770.0,7.56,94.5,0.47,4.7,77.0,7.7,0.89
00:35:10,3.8010,1.9771,1.7546,0.4440,73.81,72.98,772.0,7.51,93.9,0.47,4.7,77.2,7.72,0.88
00:35:20,3.8160,1.9886,1.7757,0.4495,74.69,73.89,776.0,7.59,94.9,0.47,4.7,77.6,7.76,0.89
00:35:30,3.8130,1.9886,1.7967,0.4551,75.58,74.80,778.0,7.58,94.8,0.47,4.7,77.8,7.78,0.89
00:35:40,5.3060,0.0092,1.7969,0.4551,75.59,74.80,779.0,0.05,0.6,0.0,0.0,77.9,7.79,0.01
00:35:50,5.2260,0.0077,1.7970,0.4551,75.59,74.81,781.0,0.04,0.5,0.0,0.0,78.1,7.81,0.0
00:36:00,5.3050,0.0083,1.7971,0.4551,75.59,74.81,783.0,0.04,0.5,0.0,0.0,78.3,7.83,0.0
00:36:10,5.3040,0.0091,1.7972,0.4551,75.60,74.81,786.0,0.05,0.6,0.0,0.0,78.6,7.86,0.01
00:36:20,5.3040,0.0092,1.7974,0.4552,75.61,74.82,789.0,0.05,0.6,0.0,0.0,78.9,7.89,0.01
00:36:30,5.2990,0.0092,1.7975,0.4552,75.61,74.82,791.0,0.05,0.6,0.0,0.0,79.1,7.91,0.01
00:36:40,5.3030,0.0091,1.7977,0.4552,75.62,74.83,793.0,0.05,0.6,0.0,0.0,79.3,7.93,0.01
00:36:50,5.3030,0.0087,1.7978,0.4553,75.62,74.83,795.0,0.05,0.6,0.0,0.0,79.5,7.95,0.01
00:37:00,4.9730,0.0067,1.7979,0.4553,75.63,74.83,795.0,0.03,0.4,0.0,0.0,79.5,7.95,0.0
00:37:10,4.3640,0.0049,1.7979,0.4553,75.63,74.83,797.0,0.02,0.3,0.0,0.0,79.7,7.97,0.0
00:37:20,4.2960,0.0046,1.7980,0.4553,75.63,74.84,795.0,0.02,0.3,0.0,0.0,79.5,7.95,0.0
00:37:30,4.2960,0.0045,1.7980,0.4553,75.63,74.84,795.0,0.02,0.3,0.0,0.0,79.5,7.95,0.0
00:37:40,4.2510,0.0045,1.7981,0.4553,75.64,74.84,795.0,0.02,0.3,0.0,0.0,79.5,7.95,0.0
00:37:50,4.1960,0.0045,1.7981,0.4553,75.64,74.84,794.0,0.02,0.3,0.0,0.0,79.4,7.94,0.0
00:38:00,4.1740,0.0045,1.7982,0.4553,75.64,74.85,797.0,0.02,0.3,0.0,0.0,79.7,7.97,0.0
00:38:10,4.1580,0.0044,1.7983,0.4554,75.64,74.85,796.0,0.02,0.3,0.0,0.0,79.6,7.96,0.0
00:38:20,4.1410,0.0044,1.7983,0.4554,75.64,74.85,790.0,0.02,0.3,0.0,0.0,79.0,7.9,0.0
00:38:30,4.1790,0.0044,1.7984,0.4554,75.65,74.85,793.0,0.02,0.3,0.0,0.0,79.3,7.93,0.0
00:38:40,4.0750,0.0044,1.7984,0.4554,75.65,74.85,792.0,0.02,0.3,0.0,0.0,79.2,7.92,0.0
00:38:50,4.0910,0.0044,1.7985,0.4554,75.65,74.86,795.0,0.02,0.3,0.0,0.0,79.5,7.95,0.0
00:39:00,4.1590,0.0045,1.7985,0.4554,75.65,74.86,798.0,0.02,0.3,0.0,0.0,79.8,7.98,0.0
00:39:10,4.1340,0.0044,1.7986,0.4554,75.66,74.86,802.0,0.02,0.3,0.0,0.0,80.2,8.02,0.0
00:39:20,4.1170,0.0044,1.7986,0.4554,75.66,74.86,801.0,0.02,0.3,0.0,0.0,80.1,8.01,0.0
00:39:30,4.1210,0.0044,1.7987,0.4555,75.66,74.86,804.0,0.02,0.3,0.0,0.0,80.4,8.04,0.0
00:39:40,4.1200,0.0044,1.7987,0.4555,75.66,74.87,802.0,0.02,0.3,0.0,0.0,80.2,8.02,0.0
00:39:50,4.0850,0.0044,1.7988,0.4555,75.66,74.87,802.0,0.02,0.3,0.0,0.0,80.2,8.02,0.0
00:40:00,4.1320,0.0045,1.7988,0.4555,75.67,74.87,802.0,0.02,0.3,0.0,0.0,80.2,8.02,0.0
00:40:10,4.1730,0.0045,1.7989,0.4555,75.67,74.87,800.0,0.02,0.3,0.0,0.0,80.0,8.0,0.0
00:40:20,4.1390,0.0045,1.7989,0.4555,75.67,74.87,800.0,0.02,0.3,0.0,0.0,80.0,8.0,0.0
00:40:30,4.1310,0.0044,1.7990,0.4555,75.67,74.88,799.0,0.02,0.3,0.0,0.0,79.9,7.99,0.0
00:40:40,4.1270,0.0046,1.7990,0.4555,75.67,74.88,801.0,0.02,0.3,0.0,0.0,80.1,8.01,0.0
00:40:50,4.1100,0.0046,1.7991,0.4556,75.68,74.88,802.0,0.02,0.3,0.0,0.0,80.2,8.02,0.0
00:41:00,4.1350,0.0046,1.7991,0.4556,75.68,74.88,804.0,0.02,0.3,0.0,0.0,80.4,8.04,0.0
00:41:10,4.1340,0.0045,1.7992,0.4556,75.68,74.88,803.0,0.02,0.3,0.0,0.0,80.3,8.03,0.0
00:41:20,4.1330,0.0045,1.7992,0.4556,75.68,74.89,805.0,0.02,0.3,0.0,0.0,80.5,8.05,0.0
00:41:30,4.1040,0.0045,1.7993,0.4556,75.69,74.89,802.0,0.02,0.3,0.0,0.0,80.2,8.02,0.0
00:41:40,4.1930,0.0045,1.7993,0.4556,75.69,74.89,802.0,0.02,0.3,0.0,0.0,80.2,8.02,0.0
00:41:50,4.1400,0.0045,1.7994,0.4556,75.69,74.89,798.0,0.02,0.3,0.0,0.0,79.8,7.98,0.0
00:42:00,4.1280,0.0045,1.7994,0.4556,75.69,74.89,801.0,0.02,0.3,0.0,0.0,80.1,8.01,0.0
00:42:10,4.2170,0.0045,1.7995,0.4557,75.69,74.90,802.0,0.02,0.3,0.0,0.0,80.2,8.02,0.0
00:42:20,4.1370,0.0045,1.7995,0.4557,75.70,74.90,803.0,0.02,0.3,0.0,0.0,80.3,8.03,0.0
00:42:30,4.1380,0.0045,1.7996,0.4557,75.70,74.90,802.0,0.02,0.3,0.0,0.0,80.2,8.02,0.0
00:42:40,4.1850,0.0046,1.7996,0.4557,75.70,74.90,801.0,0.02,0.3,0.0,0.0,80.1,8.01,0.0
00:42:50,4.1550,0.0046,1.7997,0.4557,75.70,74.90,807.0,0.02,0.3,0.0,0.0,80.7,8.07,0.0
00:43:00,4.2190,0.0046,1.7997,0.4557,75.71,74.91,807.0,0.02,0.3,0.0,0.0,80.7,8.07,0.0
00:43:10,4.1600,0.0046,1.7998,0.4557,75.71,74.91,810.0,0.02,0.3,0.0,0.0,81.0,8.1,0.0
00:43:20,4.1590,0.0045,1.7999,0.4557,75.71,74.91,810.0,0.02,0.3,0.0,0.0,81.0,8.1,0.0
00:43:30,4.2210,0.0045,1.7999,0.4558,75.71,74.91,811.0,0.02,0.3,0.0,0.0,81.1,8.11,0.0
00:43:40,4.1400,0.0046,1.8000,0.4558,75.71,74.91,813.0,0.02,0.3,0.0,0.0,81.3,8.13,0.0
00:43:50,4.1590,0.0045,1.8000,0.4558,75.72,74.92,814.0,0.02,0.3,0.0,0.0,81.4,8.14,0.0
00:44:00,4.1590,0.0045,1.8001,0.4558,75.72,74.92,814.0,0.02,0.3,0.0,0.0,81.4,8.14,0.0
00:44:10,4.1340,0.0046,1.8001,0.4558,75.72,74.92,815.0,0.02,0.3,0.0,0.0,81.5,8.15,0.0
00:44:20,4.1660,0.0045,1.8002,0.4558,75.72,74.92,817.0,0.02,0.3,0.0,0.0,81.7,8.17,0.0
00:44:30,4.1290,0.0044,1.8002,0.4558,75.73,74.93,817.0,0.02,0.3,0.0,0.0,81.7,8.17,0.0
00:44:40,4.3040,0.0045,1.8003,0.4558,75.73,74.93,817.0,0.02,0.3,0.0,0.0,81.7,8.17,0.0
00:44:50,4.1670,0.0045,1.8003,0.4559,75.73,74.93,819.0,0.02,0.3,0.0,0.0,81.9,8.19,0.0
00:45:00,4.2670,0.0045,1.8004,0.4559,75.73,74.93,819.0,0.02,0.3,0.0,0.0,81.9,8.19,0.0
00:45:10,4.6900,0.0055,1.8004,0.4559,75.74,74.93,819.0,0.03,0.4,0.0,0.0,81.9,8.19,0.0
00:45:20,4.2260,0.0045,1.8005,0.4559,75.74,74.94,818.0,0.02,0.3,0.0,0.0,81.8,8.18,0.0
00:45:30,4.1390,0.0045,1.8006,0.4559,75.74,74.94,819.0,0.02,0.3,0.0,0.0,81.9,8.19,0.0
00:45:40,4.1320,0.0046,1.8006,0.4559,75.74,74.94,821.0,0.02,0.3,0.0,0.0,82.1,8.21,0.0
00:45:50,4.1410,0.0045,1.8007,0.4559,75.74,74.94,818.0,0.02,0.3,0.0,0.0,81.8,8.18,0.0
00:46:00,4.1410,0.0045,1.8007,0.4559,75.75,74.94,822.0,0.02,0.3,0.0,0.0,82.2,8.22,0.0
00:46:10,4.1280,0.0044,1.8008,0.4560,75.75,74.95,822.0,0.02,0.3,0.0,0.0,82.2,8.22,0.0
00:46:20,4.1010,0.0044,1.8008,0.4560,75.75,74.95,821.0,0.02,0.3,0.0,0.0,82.1,8.21,0.0
00:46:30,4.1710,0.0045,1.8009,0.4560,75.75,74.95,822.0,0.02,0.3,0.0,0.0,82.2,8.22,0.0
00:46:40,4.1410,0.0044,1.8009,0.4560,75.75,74.95,825.0,0.02,0.3,0.0,0.0,82.5,8.25,0.0
00:46:50,4.1630,0.0044,1.8010,0.4560,75.76,74.95,827.0,0.02,0.3,0.0,0.0,82.7,8.27,0.0
00:47:00,4.1400,0.0044,1.8010,0.4560,75.76,74.96,830.0,0.02,0.3,0.0,0.0,83.0,8.3,0.0
00:47:10,4.1560,0.0044,1.8011,0.4560,75.76,74.96,835.0,0.02,0.3,0.0,0.0,83.5,8.35,0.0
00:47:20,4.1270,0.0045,1.8011,0.4560,75.76,74.96,842.0,0.02,0.3,0.0,0.0,84.2,8.42,0.0
00:47:30,4.1990,0.0044,1.8012,0.4561,75.77,74.96,854.0,0.02,0.3,0.0,0.0,85.4,8.54,0.0
00:47:40,4.6810,0.0057,1.8012,0.4561,75.77,74.97,799.0,0.03,0.4,0.0,0.0,79.9,7.99,0.0
00:47:50,4.1630,0.0045,1.8013,0.4561,75.77,74.97,716.0,0.02,0.3,0.0,0.0,71.6,7.16,0.0
00:48:00,4.1440,0.0046,1.8013,0.4561,75.77,74.97,855.0,0.02,0.3,0.0,0.0,85.5,8.55,0.0
00:48:10,4.1760,0.0045,1.8014,0.4561,75.78,74.97,858.0,0.02,0.3,0.0,0.0,85.8,8.58,0.0
00:48:20,4.1660,0.0045,1.8015,0.4561,75.78,74.97,858.0,0.02,0.3,0.0,0.0,85.8,8.58,0.0
00:48:30,4.2720,0.0049,1.8015,0.4561,75.78,74.98,844.0,0.02,0.3,0.0,0.0,84.4,8.44,0.0
00:48:40,4.1620,0.0045,1.8016,0.4562,75.78,74.98,851.0,0.02,0.3,0.0,0.0,85.1,8.51,0.0
00:48:50,4.1340,0.0046,1.8016,0.4562,75.78,74.98,847.0,0.02,0.3,0.0,0.0,84.7,8.47,0.0
00:49:00,4.4950,0.0047,1.8017,0.4562,75.79,74.98,834.0,0.02,0.3,0.0,0.0,83.4,8.34,0.0
00:49:10,3.5030,1.9583,1.8207,0.4616,76.59,75.88,806.0,6.86,85.8,0.43,4.3,80.6,8.06,0.77
00:49:20,4.3700,0.7718,1.8301,0.4638,76.98,76.23,522.0,3.37,42.1,0.21,2.1,52.2,5.22,0.59
00:49:30,4.9110,0.1694,1.8324,0.4642,77.08,76.31,338.0,0.83,10.4,0.05,0.5,33.8,3.38,0.22
00:49:40,2.0640,0.1419,1.8332,0.4646,77.11,76.37,345.0,0.29,3.6,0.02,0.2,34.5,3.45,0.08
00:49:50,1.9590,0.0914,1.8337,0.4649,77.13,76.41,206.0,0.18,2.3,0.01,0.1,20.6,2.06,0.08
00:50:00,1.9660,0.0909,1.8342,0.4651,77.16,76.45,195.5,0.18,2.3,0.01,0.1,19.6,1.955,0.08
00:50:10,1.9570,0.0852,1.8347,0.4654,77.17,76.49,185.0,0.17,2.1,0.01,0.1,18.5,1.85,0.08
00:50:20,1.9580,0.0951,1.8352,0.4656,77.20,76.54,184.5,0.19,2.4,0.01,0.1,18.5,1.845,0.09
00:50:30,2.1650,0.2497,1.8367,0.4663,77.26,76.65,294.0,0.54,6.8,0.03,0.3,29.4,2.94,0.17
00:50:40,4.1620,0.0044,1.8367,0.4663,77.26,76.65,478.0,0.02,0.3,0.0,0.0,47.8,4.78,0.0
00:50:50,4.3870,0.0046,1.8368,0.4664,77.26,76.65,543.0,0.02,0.3,0.0,0.0,54.3,5.43,0.0
00:51:00,4.3910,0.0049,1.8369,0.4664,77.27,76.66,521.0,0.02,0.3,0.0,0.0,52.1,5.21,0.0
00:51:10,1.9730,0.1148,1.8375,0.4667,77.29,76.71,298.0,0.23,2.9,0.01,0.1,29.8,2.98,0.07
00:51:20,1.9580,0.0902,1.8380,0.4669,77.31,76.75,189.5,0.18,2.3,0.01,0.1,19.0,1.895,0.09
00:51:30,1.9860,0.1249,1.8387,0.4673,77.34,76.81,214.0,0.25,3.1,0.02,0.2,21.4,2.14,0.11
00:51:40,4.3350,0.0046,1.8387,0.4673,77.35,76.81,356.0,0.02,0.3,0.0,0.0,35.6,3.56,0.01
00:51:50,3.8880,2.0022,1.8604,0.4729,78.25,77.72,765.0,7.78,97.3,0.49,4.9,76.5,7.65,0.92
00:52:00,5.3060,0.0092,1.8605,0.4729,78.26,77.73,784.0,0.05,0.6,0.0,0.0,78.4,7.84,0.01
00:52:10,3.8870,2.0003,1.8821,0.4784,79.17,78.64,779.0,7.78,97.3,0.49,4.9,77.9,7.79,0.91
00:52:20,3.8640,2.0004,1.9036,0.4840,80.07,79.55,777.0,7.73,96.6,0.48,4.8,77.7,7.77,0.9
00:52:30,3.8570,2.0020,1.9250,0.4896,80.97,80.47,776.0,7.72,96.5,0.48,4.8,77.6,7.76,0.9
00:52:40,5.3080,0.0092,1.9251,0.4896,80.98,80.47,774.0,0.05,0.6,0.0,0.0,77.4,7.74,0.01
00:52:50,4.3920,1.3161,1.9412,0.4932,81.66,81.07,774.0,5.78,72.3,0.36,3.6,77.4,7.74,0.68
00:53:00,3.8490,2.0009,1.9626,0.4988,82.56,81.99,774.0,7.7,96.3,0.48,4.8,77.4,7.74,0.9
00:53:10,3.8460,1.9978,1.9839,0.5043,83.45,82.90,773.0,7.68,96.0,0.48,4.8,77.3,7.73,0.9
00:53:20,5.2950,0.0372,1.9845,0.5044,83.48,82.92,770.0,0.2,2.5,0.01,0.1,77.0,7.7,0.02
00:53:30,3.8480,1.9919,2.0058,0.5100,84.37,83.83,770.0,7.66,95.8,0.48,4.8,77.0,7.7,0.9
00:53:40,5.3060,0.0092,2.0059,0.5100,84.38,83.83,771.0,0.05,0.6,0.0,0.0,77.1,7.71,0.01
00:53:50,5.3040,0.0091,2.0060,0.5100,84.38,83.83,770.0,0.05,0.6,0.0,0.0,77.0,7.7,0.01
00:54:00,5.2950,0.0077,2.0062,0.5101,84.39,83.84,768.0,0.04,0.5,0.0,0.0,76.8,7.68,0.0
00:54:10,5.3070,0.0091,2.0063,0.5101,84.39,83.84,766.0,0.05,0.6,0.0,0.0,76.6,7.66,0.01
00:54:20,3.7880,1.9751,2.0271,0.5156,85.27,84.74,764.0,7.48,93.5,0.47,4.7,76.4,7.64,0.89
00:54:30,4.2280,1.5868,2.0457,0.5200,86.05,85.47,761.0,6.71,83.9,0.42,4.2,76.1,7.61,0.8
00:54:40,5.3080,0.0085,2.0458,0.5200,86.06,85.47,761.0,0.05,0.6,0.0,0.0,76.1,7.61,0.01
00:54:50,3.7800,1.9710,2.0665,0.5255,86.93,86.37,758.0,7.45,93.1,0.47,4.7,75.8,7.58,0.89
00:55:00,3.7370,1.8619,2.0859,0.5306,87.74,87.22,757.0,6.96,87.0,0.44,4.4,75.7,7.57,0.84
00:55:10,5.3030,0.0092,2.0860,0.5307,87.75,87.23,756.0,0.05,0.6,0.0,0.0,75.6,7.56,0.01
00:55:20,5.3090,0.0092,2.0861,0.5307,87.75,87.23,750.0,0.05,0.6,0.0,0.0,75.0,7.5,0.01
00:55:30,5.3050,0.0092,2.0863,0.5307,87.76,87.23,745.0,0.05,0.6,0.0,0.0,74.5,7.45,0.01
00:55:40,5.3040,0.0091,2.0864,0.5307,87.76,87.24,739.0,0.05,0.6,0.0,0.0,73.9,7.39,0.01
00:55:50,3.7620,1.9460,2.1067,0.5361,88.62,88.13,742.0,7.32,91.5,0.46,4.6,74.2,7.42,0.9
00:56:00,3.7960,1.9607,2.1274,0.5416,89.49,89.02,749.0,7.44,93.0,0.47,4.7,74.9,7.49,0.9
00:56:10,5.3060,0.0091,2.1275,0.5416,89.49,89.03,755.0,0.05,0.6,0.0,0.0,75.5,7.55,0.01
00:56:20,5.3040,0.0090,2.1277,0.5416,89.50,89.03,750.0,0.05,0.6,0.0,0.0,75.0,7.5,0.01
00:56:30,3.7760,1.9669,2.1483,0.5471,90.37,89.93,756.0,7.43,92.9,0.46,4.6,75.6,7.56,0.89
00:56:40,3.8180,1.9628,2.1691,0.5526,91.24,90.82,758.0,7.49,93.6,0.47,4.7,75.8,7.58,0.9
00:56:50,3.8040,1.9829,2.1901,0.5581,92.12,91.73,763.0,7.54,94.3,0.47,4.7,76.3,7.63,0.9
00:57:00,5.3060,0.0092,2.1902,0.5581,92.13,91.73,762.0,0.05,0.6,0.0,0.0,76.2,7.62,0.01
00:57:10,5.3050,0.0092,2.1903,0.5581,92.14,91.74,763.0,0.05,0.6,0.0,0.0,76.3,7.63,0.01
00:57:20,3.7630,1.9621,2.2109,0.5636,93.00,92.63,761.0,7.38,92.3,0.46,4.6,76.1,7.61,0.88
00:57:30,5.3030,0.0093,2.2110,0.5636,93.00,92.64,764.0,0.05,0.6,0.0,0.0,76.4,7.64,0.01
00:57:40,5.3000,0.0092,2.2111,0.5636,93.01,92.64,764.0,0.05,0.6,0.0,0.0,76.4,7.64,0.01
00:57:50,5.0120,0.0064,2.2112,0.5636,93.01,92.65,764.0,0.03,0.4,0.0,0.0,76.4,7.64,0.0
00:58:00,4.4330,0.0048,2.2113,0.5637,93.02,92.65,768.0,0.02,0.3,0.0,0.0,76.8,7.68,0.0
00:58:10,4.3320,0.0046,2.2113,0.5637,93.02,92.65,765.0,0.02,0.3,0.0,0.0,76.5,7.65,0.0
00:58:20,4.3230,0.0048,2.2114,0.5637,93.02,92.65,771.0,0.02,0.3,0.0,0.0,77.1,7.71,0.0
00:58:30,4.3010,0.0048,2.2114,0.5637,93.02,92.65,772.0,0.02,0.3,0.0,0.0,77.2,7.72,0.0
00:58:40,4.4130,0.0049,2.2115,0.5637,93.03,92.66,774.0,0.02,0.3,0.0,0.0,77.4,7.74,0.0
00:58:50,4.4560,0.0049,2.2116,0.5637,93.03,92.66,774.0,0.02,0.3,0.0,0.0,77.4,7.74,0.0
00:59:00,4.2500,0.0046,2.2116,0.5637,93.03,92.66,772.0,0.02,0.3,0.0,0.0,77.2,7.72,0.0
00:59:10,4.3040,0.0046,2.2117,0.5637,93.03,92.66,772.0,0.02,0.3,0.0,0.0,77.2,7.72,0.0
00:59:20,4.2220,0.0046,2.2117,0.5638,93.04,92.67,770.0,0.02,0.3,0.0,0.0,77.0,7.7,0.0
00:59:30,4.2100,0.0045,2.2118,0.5638,93.04,92.67,768.0,0.02,0.3,0.0,0.0,76.8,7.68,0.0
00:59:40,4.2050,0.0045,2.2118,0.5638,93.04,92.67,763.0,0.02,0.3,0.0,0.0,76.3,7.63,0.0
00:59:50,4.2110,0.0045,2.2119,0.5638,93.04,92.67,766.0,0.02,0.3,0.0,0.0,76.6,7.66,0.0
01:00:00,4.1610,0.0045,2.2119,0.5638,93.04,92.67,765.0,0.02,0.3,0.0,0.0,76.5,7.65,0.0
01:00:10,4.1510,0.0045,2.2120,0.5638,93.05,92.68,765.0,0.02,0.3,0.0,0.0,76.5,7.65,0.0
01:00:20,4.1670,0.0044,2.2120,0.5638,93.05,92.68,763.0,0.02,0.3,0.0,0.0,76.3,7.63,0.0
01:00:30,4.1970,0.0045,2.2121,0.5638,93.05,92.68,761.0,0.02,0.3,0.0,0.0,76.1,7.61,0.0
01:00:40,4.1050,0.0045,2.2121,0.5639,93.05,92.68,762.0,0.02,0.3,0.0,0.0,76.2,7.62,0.0
01:00:50,4.1230,0.0046,2.2122,0.5639,93.06,92.68,761.0,0.02,0.3,0.0,0.0,76.1,7.61,0.0
01:01:00,4.1430,0.0045,2.2122,0.5639,93.06,92.69,759.0,0.02,0.3,0.0,0.0,75.9,7.59,0.0
01:01:10,4.2420,0.0046,2.2123,0.5639,93.06,92.69,758.0,0.02,0.3,0.0,0.0,75.8,7.58,0.0
01:01:20,4.1480,0.0045,2.2124,0.5639,93.06,92.69,759.0,0.02,0.3,0.0,0.0,75.9,7.59,0.0
01:01:30,4.1990,0.0046,2.2124,0.5639,93.06,92.69,758.0,0.02,0.3,0.0,0.0,75.8,7.58,0.0
01:01:40,4.1350,0.0046,2.2125,0.5639,93.07,92.69,761.0,0.02,0.3,0.0,0.0,76.1,7.61,0.0
01:01:50,4.1700,0.0046,2.2125,0.5639,93.07,92.70,758.0,0.02,0.3,0.0,0.0,75.8,7.58,0.0
01:02:00,4.1240,0.0045,2.2126,0.5640,93.07,92.70,757.0,0.02,0.3,0.0,0.0,75.7,7.57,0.0
01:02:10,4.1540,0.0046,2.2126,0.5640,93.07,92.70,760.0,0.02,0.3,0.0,0.0,76.0,7.6,0.0
01:02:20,4.1740,0.0045,2.2127,0.5640,93.08,92.70,762.0,0.02,0.3,0.0,0.0,76.2,7.62,0.0
01:02:30,5.2650,0.0084,2.2128,0.5640,93.08,92.71,764.0,0.04,0.5,0.0,0.0,76.4,7.64,0.0
01:02:40,4.1460,0.0045,2.2128,0.5640,93.08,92.71,764.0,0.02,0.3,0.0,0.0,76.4,7.64,0.0
01:02:50,4.1180,0.0045,2.2129,0.5640,93.08,92.71,765.0,0.02,0.3,0.0,0.0,76.5,7.65,0.0
01:03:00,4.2760,0.0045,2.2130,0.5640,93.09,92.71,769.0,0.02,0.3,0.0,0.0,76.9,7.69,0.0
01:03:10,4.2480,0.0045,2.2130,0.5641,93.09,92.71,766.0,0.02,0.3,0.0,0.0,76.6,7.66,0.0
01:03:20,4.1690,0.0046,2.2131,0.5641,93.09,92.72,765.0,0.02,0.3,0.0,0.0,76.5,7.65,0.0
01:03:30,4.1940,0.0047,2.2131,0.5641,93.09,92.72,766.0,0.02,0.3,0.0,0.0,76.6,7.66,0.0
01:03:40,5.2350,0.0091,2.2132,0.5641,93.10,92.72,766.0,0.05,0.6,0.0,0.0,76.6,7.66,0.01
01:03:50,4.1980,0.0046,2.2133,0.5641,93.10,92.73,768.0,0.02,0.3,0.0,0.0,76.8,7.68,0.0
01:04:00,4.2130,0.0046,2.2134,0.5641,93.10,92.73,770.0,0.02,0.3,0.0,0.0,77.0,7.7,0.0
01:04:10,4.2150,0.0045,2.2134,0.5641,93.11,92.73,769.0,0.02,0.3,0.0,0.0,76.9,7.69,0.0
01:04:20,4.7910,0.0058,2.2135,0.5642,93.11,92.73,768.0,0.03,0.4,0.0,0.0,76.8,7.68,0.0
01:04:30,3.6240,1.9999,2.2336,0.5697,93.96,93.64,771.0,7.25,90.6,0.45,4.5,77.1,7.71,0.85
01:04:40,4.8910,0.2290,2.2367,0.5704,94.09,93.75,711.0,1.12,14.0,0.07,0.7,71.1,7.11,0.14
01:04:50,5.0760,0.0091,2.2369,0.5704,94.09,93.75,378.0,0.05,0.6,0.0,0.0,37.8,3.78,0.01
01:05:00,2.0240,0.1511,2.2377,0.5708,94.13,93.82,538.0,0.31,3.9,0.02,0.2,53.8,5.38,0.05
01:05:10,1.9280,0.0738,2.2381,0.5710,94.14,93.86,212.0,0.14,1.8,0.01,0.1,21.2,2.12,0.06
01:05:20,1.9280,0.0717,2.2385,0.5712,94.16,93.89,152.3,0.14,1.8,0.01,0.1,15.2,1.523,0.08
01:05:30,1.9280,0.0724,2.2389,0.5714,94.18,93.92,151.3,0.14,1.8,0.01,0.1,15.1,1.513,0.08
01:05:40,1.9280,0.0767,2.2393,0.5716,94.19,93.96,154.6,0.15,1.9,0.01,0.1,15.5,1.546,0.09
01:05:50,1.9490,0.0974,2.2398,0.5719,94.22,94.00,166.7,0.19,2.4,0.01,0.1,16.7,1.667,0.1
01:06:00,5.0920,0.0181,2.2401,0.5719,94.23,94.01,204.0,0.09,1.1,0.01,0.1,20.4,2.04,0.04
01:06:10,1.9920,0.1578,2.2409,0.5724,94.26,94.08,339.0,0.31,3.9,0.02,0.2,33.9,3.39,0.08
01:06:20,5.2610,0.0091,2.2411,0.5724,94.27,94.09,315.0,0.05,0.6,0.0,0.0,31.5,3.15,0.01
01:06:30,3.5090,1.8287,2.2589,0.5775,95.02,94.92,678.0,6.42,80.3,0.4,4.0,67.8,6.78,0.86
01:06:40,3.6770,1.8937,2.2782,0.5827,95.83,95.79,633.0,6.96,87.0,0.44,4.4,63.3,6.33,1.0
01:06:50,3.7240,1.9401,2.2983,0.5881,96.68,96.67,725.0,7.22,90.3,0.45,4.5,72.5,7.25,0.91
01:07:00,5.3080,0.0151,2.2985,0.5882,96.69,96.68,711.0,0.08,1.0,0.01,0.1,71.1,7.11,0.01
01:07:10,3.7350,1.9294,2.3185,0.5935,97.53,97.56,711.0,7.21,90.1,0.45,4.5,71.1,7.11,0.92
01:07:20,5.3040,0.0092,2.3187,0.5936,97.53,97.56,717.0,0.05,0.6,0.0,0.0,71.7,7.17,0.01
01:07:30,3.7370,1.9467,2.3389,0.5990,98.38,98.45,722.0,7.27,90.9,0.45,4.5,72.2,7.22,0.92
01:07:40,5.3090,0.0093,2.3390,0.5990,98.39,98.46,727.0,0.05,0.6,0.0,0.0,72.7,7.27,0.01
01:07:50,3.7440,1.9498,2.3593,0.6044,99.24,99.35,733.0,7.3,91.3,0.46,4.6,73.3,7.33,0.91
01:08:00,5.3060,0.0092,2.3594,0.6044,99.25,99.35,726.0,0.05,0.6,0.0,0.0,72.6,7.26,0.01
01:08:10,4.6850,0.8423,2.3704,0.6068,99.71,99.74,714.0,3.95,49.4,0.25,2.5,71.4,7.14,0.5
01:08:20,5.3050,0.0091,2.3705,0.6068,99.72,99.74,714.0,0.05,0.6,0.0,0.0,71.4,7.14,0.01
01:08:30,5.3030,0.0091,2.3707,0.6068,99.72,99.74,718.0,0.05,0.6,0.0,0.0,71.8,7.18,0.01
01:08:40,5.2220,0.0196,2.3710,0.6069,99.73,99.75,714.0,0.1,1.3,0.01,0.1,71.4,7.14,0.01
01:08:50,5.2430,0.0081,2.3711,0.6069,99.74,99.76,713.0,0.04,0.5,0.0,0.0,71.3,7.13,0.01
01:09:00,5.1520,0.0065,2.3712,0.6069,99.74,99.76,718.0,0.03,0.4,0.0,0.0,71.8,7.18,0.0
01:09:10,4.4670,0.0050,2.3712,0.6069,99.74,99.76,713.0,0.02,0.3,0.0,0.0,71.3,7.13,0.0
01:09:20,4.2440,0.0046,2.3713,0.6069,99.75,99.76,710.0,0.02,0.3,0.0,0.0,71.0,7.1,0.0
01:09:30,4.2520,0.0045,2.3713,0.6070,99.75,99.77,702.0,0.02,0.3,0.0,0.0,70.2,7.02,0.0
01:09:40,4.2350,0.0045,2.3714,0.6070,99.75,99.77,704.0,0.02,0.3,0.0,0.0,70.4,7.04,0.0
01:09:50,4.2060,0.0044,2.3714,0.6070,99.75,99.77,700.0,0.02,0.3,0.0,0.0,70.0,7.0,0.0
01:10:00,4.1550,0.0044,2.3715,0.6070,99.76,99.77,692.0,0.02,0.3,0.0,0.0,69.2,6.92,0.0
01:10:10,4.1810,0.0044,2.3715,0.6070,99.76,99.77,693.0,0.02,0.3,0.0,0.0,69.3,6.93,0.0
01:10:20,4.1760,0.0045,2.3716,0.6070,99.76,99.78,696.0,0.02,0.3,0.0,0.0,69.6,6.96,0.0
01:10:30,4.2100,0.0045,2.3716,0.6070,99.76,99.78,697.0,0.02,0.3,0.0,0.0,69.7,6.97,0.0
01:10:40,4.1470,0.0044,2.3717,0.6070,99.76,99.78,700.0,0.02,0.3,0.0,0.0,70.0,7.0,0.0
01:10:50,4.1540,0.0044,2.3717,0.6071,99.77,99.78,697.0,0.02,0.3,0.0,0.0,69.7,6.97,0.0
01:11:00,4.1650,0.0045,2.3718,0.6071,99.77,99.78,686.0,0.02,0.3,0.0,0.0,68.6,6.86,0.0
01:11:10,4.1390,0.0044,2.3719,0.6071,99.77,99.79,679.0,0.02,0.3,0.0,0.0,67.9,6.79,0.0
01:11:20,4.1610,0.0045,2.3719,0.6071,99.77,99.79,683.0,0.02,0.3,0.0,0.0,68.3,6.83,0.0
01:11:30,4.1470,0.0043,2.3720,0.6071,99.78,99.79,690.0,0.02,0.3,0.0,0.0,69.0,6.9,0.0
01:11:40,4.1190,0.0044,2.3720,0.6071,99.78,99.79,692.0,0.02,0.3,0.0,0.0,69.2,6.92,0.0
01:11:50,4.1290,0.0044,2.3721,0.6071,99.78,99.79,690.0,0.02,0.3,0.0,0.0,69.0,6.9,0.0
01:12:00,4.1080,0.0044,2.3721,0.6071,99.78,99.80,689.0,0.02,0.3,0.0,0.0,68.9,6.89,0.0
01:12:10,4.1210,0.0043,2.3722,0.6072,99.78,99.80,692.0,0.02,0.3,0.0,0.0,69.2,6.92,0.0
01:12:20,4.1840,0.0044,2.3722,0.6072,99.79,99.80,689.0,0.02,0.3,0.0,0.0,68.9,6.89,0.0
01:12:30,4.1280,0.0044,2.3723,0.6072,99.79,99.80,685.0,0.02,0.3,0.0,0.0,68.5,6.85,0.0
01:12:40,4.1150,0.0044,2.3723,0.6072,99.79,99.80,682.0,0.02,0.3,0.0,0.0,68.2,6.82,0.0
01:12:50,4.1550,0.0045,2.3724,0.6072,99.79,99.81,686.0,0.02,0.3,0.0,0.0,68.6,6.86,0.0
01:13:00,4.1270,0.0045,2.3724,0.6072,99.79,99.81,684.0,0.02,0.3,0.0,0.0,68.4,6.84,0.0
01:13:10,4.1660,0.0044,2.3725,0.6072,99.80,99.81,680.0,0.02,0.3,0.0,0.0,68.0,6.8,0.0
01:13:20,4.0890,0.0044,2.3725,0.6072,99.80,99.81,684.0,0.02,0.3,0.0,0.0,68.4,6.84,0.0
01:13:30,4.2180,0.0045,2.3726,0.6073,99.80,99.81,684.0,0.02,0.3,0.0,0.0,68.4,6.84,0.0
01:13:40,4.1650,0.0045,2.3726,0.6073,99.80,99.82,682.0,0.02,0.3,0.0,0.0,68.2,6.82,0.0
01:13:50,4.1400,0.0045,2.3727,0.6073,99.81,99.82,684.0,0.02,0.3,0.0,0.0,68.4,6.84,0.0
01:14:00,4.1330,0.0045,2.3727,0.6073,99.81,99.82,687.0,0.02,0.3,0.0,0.0,68.7,6.87,0.0
01:14:10,4.1100,0.0044,2.3728,0.6073,99.81,99.82,688.0,0.02,0.3,0.0,0.0,68.8,6.88,0.0
01:14:20,4.1230,0.0045,2.3728,0.6073,99.81,99.82,692.0,0.02,0.3,0.0,0.0,69.2,6.92,0.0
01:14:30,4.1330,0.0045,2.3729,0.6073,99.81,99.83,691.0,0.02,0.3,0.0,0.0,69.1,6.91,0.0
01:14:40,4.1630,0.0045,2.3729,0.6073,99.82,99.83,686.0,0.02,0.3,0.0,0.0,68.6,6.86,0.0
01:14:50,4.1840,0.0045,2.3730,0.6074,99.82,99.83,689.0,0.02,0.3,0.0,0.0,68.9,6.89,0.0
01:15:00,4.2050,0.0045,2.3730,0.6074,99.82,99.83,694.0,0.02,0.3,0.0,0.0,69.4,6.94,0.0
01:15:10,4.1980,0.0045,2.3731,0.6074,99.82,99.83,695.0,0.02,0.3,0.0,0.0,69.5,6.95,0.0
01:15:20,4.1440,0.0045,2.3731,0.6074,99.82,99.84,695.0,0.02,0.3,0.0,0.0,69.5,6.95,0.0
01:15:30,4.1080,0.0044,2.3732,0.6074,99.83,99.84,695.0,0.02,0.3,0.0,0.0,69.5,6.95,0.0
01:15:40,4.1290,0.0044,2.3732,0.6074,99.83,99.84,689.0,0.02,0.3,0.0,0.0,68.9,6.89,0.0
01:15:50,4.1700,0.0045,2.3733,0.6074,99.83,99.84,688.0,0.02,0.3,0.0,0.0,68.8,6.88,0.0
01:16:00,4.2000,0.0044,2.3733,0.6074,99.83,99.85,689.0,0.02,0.3,0.0,0.0,68.9,6.89,0.0
01:16:10,4.1420,0.0044,2.3734,0.6075,99.84,99.85,687.0,0.02,0.3,0.0,0.0,68.7,6.87,0.0
01:16:20,4.1570,0.0045,2.3734,0.6075,99.84,99.85,689.0,0.02,0.3,0.0,0.0,68.9,6.89,0.0
01:16:30,4.2380,0.0045,2.3735,0.6075,99.84,99.85,694.0,0.02,0.3,0.0,0.0,69.4,6.94,0.0
01:16:40,4.2420,0.0046,2.3735,0.6075,99.84,99.85,693.0,0.02,0.3,0.0,0.0,69.3,6.93,0.0
01:16:50,4.2900,0.0048,2.3736,0.6075,99.84,99.86,690.0,0.02,0.3,0.0,0.0,69.0,6.9,0.0
01:17:00,4.3500,0.0046,2.3737,0.6075,99.85,99.86,695.0,0.02,0.3,0.0,0.0,69.5,6.95,0.0
01:17:10,4.2770,0.0047,2.3737,0.6075,99.85,99.86,694.0,0.02,0.3,0.0,0.0,69.4,6.94,0.0
01:17:20,4.3070,0.0046,2.3738,0.6075,99.85,99.86,693.0,0.02,0.3,0.0,0.0,69.3,6.93,0.0
01:17:30,4.3460,0.0047,2.3738,0.6076,99.85,99.86,694.0,0.02,0.3,0.0,0.0,69.4,6.94,0.0
01:17:40,4.3030,0.0046,2.3739,0.6076,99.86,99.87,695.0,0.02,0.3,0.0,0.0,69.5,6.95,0.0
01:17:50,4.2830,0.0046,2.3739,0.6076,99.86,99.87,693.0,0.02,0.3,0.0,0.0,69.3,6.93,0.0
01:18:00,4.2370,0.0046,2.3740,0.6076,99.86,99.87,689.0,0.02,0.3,0.0,0.0,68.9,6.89,0.0
01:18:10,4.2290,0.0046,2.3740,0.6076,99.86,99.87,694.0,0.02,0.3,0.0,0.0,69.4,6.94,0.0
01:18:20,4.2210,0.0046,2.3741,0.6076,99.87,99.87,697.0,0.02,0.3,0.0,0.0,69.7,6.97,0.0
01:18:30,4.2540,0.0045,2.3742,0.6076,99.87,99.88,698.0,0.02,0.3,0.0,0.0,69.8,6.98,0.0
01:18:40,4.2610,0.0047,2.3742,0.6076,99.87,99.88,698.0,0.02,0.3,0.0,0.0,69.8,6.98,0.0
01:18:50,4.2950,0.0046,2.3743,0.6077,99.87,99.88,692.0,0.02,0.3,0.0,0.0,69.2,6.92,0.0
01:19:00,4.2290,0.0047,2.3743,0.6077,99.87,99.88,698.0,0.02,0.3,0.0,0.0,69.8,6.98,0.0
01:19:10,4.2750,0.0046,2.3744,0.6077,99.88,99.89,697.0,0.02,0.3,0.0,0.0,69.7,6.97,0.0
01:19:20,4.2310,0.0046,2.3744,0.6077,99.88,99.89,698.0,0.02,0.3,0.0,0.0,69.8,6.98,0.0
01:19:30,4.2040,0.0046,2.3745,0.6077,99.88,99.89,700.0,0.02,0.3,0.0,0.0,70.0,7.0,0.0
01:19:40,4.2410,0.0046,2.3745,0.6077,99.88,99.89,700.0,0.02,0.3,0.0,0.0,70.0,7.0,0.0
01:19:50,4.2200,0.0045,2.3746,0.6077,99.89,99.89,700.0,0.02,0.3,0.0,0.0,70.0,7.0,0.0
01:20:00,4.2160,0.0046,2.3746,0.6077,99.89,99.90,699.0,0.02,0.3,0.0,0.0,69.9,6.99,0.0
01:20:10,4.2340,0.0045,2.3747,0.6078,99.89,99.90,697.0,0.02,0.3,0.0,0.0,69.7,6.97,0.0
01:20:20,4.2120,0.0045,2.3747,0.6078,99.89,99.90,693.0,0.02,0.3,0.0,0.0,69.3,6.93,0.0
01:20:30,4.2420,0.0045,2.3748,0.6078,99.89,99.90,693.0,0.02,0.3,0.0,0.0,69.3,6.93,0.0
01:20:40,4.2130,0.0046,2.3749,0.6078,99.90,99.90,686.0,0.02,0.3,0.0,0.0,68.6,6.86,0.0
01:20:50,4.2770,0.0045,2.3749,0.6078,99.90,99.91,672.0,0.02,0.3,0.0,0.0,67.2,6.72,0.0
01:21:00,4.2200,0.0045,2.3750,0.6078,99.90,99.91,664.0,0.02,0.3,0.0,0.0,66.4,6.64,0.0
01:21:10,4.2520,0.0046,2.3750,0.6078,99.90,99.91,665.0,0.02,0.3,0.0,0.0,66.5,6.65,0.0
01:21:20,4.2560,0.0046,2.3751,0.6078,99.91,99.91,673.0,0.02,0.3,0.0,0.0,67.3,6.73,0.0
01:21:30,4.2630,0.0046,2.3751,0.6079,99.91,99.91,680.0,0.02,0.3,0.0,0.0,68.0,6.8,0.0
01:21:40,4.2710,0.0046,2.3752,0.6079,99.91,99.92,693.0,0.02,0.3,0.0,0.0,69.3,6.93,0.0
01:21:50,4.1730,0.0046,2.3752,0.6079,99.91,99.92,698.0,0.02,0.3,0.0,0.0,69.8,6.98,0.0
01:22:00,4.2260,0.0046,2.3753,0.6079,99.92,99.92,703.0,0.02,0.3,0.0,0.0,70.3,7.03,0.0
01:22:10,4.1980,0.0046,2.3753,0.6079,99.92,99.92,710.0,0.02,0.3,0.0,0.0,71.0,7.1,0.0
01:22:20,4.1920,0.0045,2.3754,0.6079,99.92,99.92,705.0,0.02,0.3,0.0,0.0,70.5,7.05,0.0
01:22:30,4.2340,0.0044,2.3754,0.6079,99.92,99.93,702.0,0.02,0.3,0.0,0.0,70.2,7.02,0.0
01:22:40,4.1560,0.0045,2.3755,0.6079,99.92,99.93,704.0,0.02,0.3,0.0,0.0,70.4,7.04,0.0
01:22:50,4.1120,0.0044,2.3755,0.6080,99.93,99.93,695.0,0.02,0.3,0.0,0.0,69.5,6.95,0.0
01:23:00,4.1530,0.0044,2.3756,0.6080,99.93,99.93,692.0,0.02,0.3,0.0,0.0,69.2,6.92,0.0
01:23:10,4.1330,0.0044,2.3756,0.6080,99.93,99.93,684.0,0.02,0.3,0.0,0.0,68.4,6.84,0.0
01:23:20,4.1730,0.0045,2.3757,0.6080,99.93,99.94,688.0,0.02,0.3,0.0,0.0,68.8,6.88,0.0
01:23:30,4.1420,0.0045,2.3757,0.6080,99.93,99.94,695.0,0.02,0.3,0.0,0.0,69.5,6.95,0.0
01:23:40,4.1610,0.0044,2.3758,0.6080,99.94,99.94,697.0,0.02,0.3,0.0,0.0,69.7,6.97,0.0
01:23:50,4.1980,0.0045,2.3759,0.6080,99.94,99.94,697.0,0.02,0.3,0.0,0.0,69.7,6.97,0.0
01:24:00,4.1760,0.0045,2.3759,0.6080,99.94,99.94,688.0,0.02,0.3,0.0,0.0,68.8,6.88,0.0
01:24:10,4.1300,0.0044,2.3760,0.6081,99.94,99.95,683.0,0.02,0.3,0.0,0.0,68.3,6.83,0.0
01:24:20,4.1640,0.0044,2.3760,0.6081,99.95,99.95,685.0,0.02,0.3,0.0,0.0,68.5,6.85,0.0
01:24:30,4.1000,0.0044,2.3761,0.6081,99.95,99.95,685.0,0.02,0.3,0.0,0.0,68.5,6.85,0.0
01:24:40,4.1340,0.0044,2.3761,0.6081,99.95,99.95,688.0,0.02,0.3,0.0,0.0,68.8,6.88,0.0
01:24:50,4.1420,0.0045,2.3762,0.6081,99.95,99.96,693.0,0.02,0.3,0.0,0.0,69.3,6.93,0.0
01:25:00,4.1550,0.0045,2.3762,0.6081,99.95,99.96,698.0,0.02,0.3,0.0,0.0,69.8,6.98,0.0
01:25:10,4.1790,0.0044,2.3763,0.6081,99.96,99.96,694.0,0.02,0.3,0.0,0.0,69.4,6.94,0.0
01:25:20,4.1600,0.0045,2.3763,0.6081,99.96,99.96,691.0,0.02,0.3,0.0,0.0,69.1,6.91,0.0
01:25:30,4.1750,0.0045,2.3764,0.6082,99.96,99.96,693.0,0.02,0.3,0.0,0.0,69.3,6.93,0.0
01:25:40,4.1510,0.0045,2.3764,0.6082,99.96,99.97,694.0,0.02,0.3,0.0,0.0,69.4,6.94,0.0
01:25:50,4.1790,0.0045,2.3765,0.6082,99.97,99.97,692.0,0.02,0.3,0.0,0.0,69.2,6.92,0.0
01:26:00,4.1450,0.0044,2.3765,0.6082,99.97,99.97,693.0,0.02,0.3,0.0,0.0,69.3,6.93,0.0
01:26:10,4.1440,0.0045,2.3766,0.6082,99.97,99.97,686.0,0.02,0.3,0.0,0.0,68.6,6.86,0.0
01:26:20,4.1390,0.0044,2.3766,0.6082,99.97,99.97,682.0,0.02,0.3,0.0,0.0,68.2,6.82,0.0
01:26:30,4.1410,0.0044,2.3767,0.6082,99.97,99.98,673.0,0.02,0.3,0.0,0.0,67.3,6.73,0.0
01:26:40,4.1690,0.0044,2.3767,0.6082,99.98,99.98,675.0,0.02,0.3,0.0,0.0,67.5,6.75,0.0
01:26:50,4.1400,0.0044,2.3768,0.6083,99.98,99.98,666.0,0.02,0.3,0.0,0.0,66.6,6.66,0.0
01:27:00,4.1530,0.0044,2.3768,0.6083,99.98,99.98,648.0,0.02,0.3,0.0,0.0,64.8,6.48,0.0
01:27:10,4.1340,0.0044,2.3769,0.6083,99.98,99.98,641.0,0.02,0.3,0.0,0.0,64.1,6.41,0.0
01:27:20,4.1430,0.0044,2.3769,0.6083,99.98,99.99,642.0,0.02,0.3,0.0,0.0,64.2,6.42,0.0
01:27:30,4.1250,0.0044,2.3770,0.6083,99.99,99.99,638.0,0.02,0.3,0.0,0.0,63.8,6.38,0.0
01:27:40,4.1790,0.0044,2.3770,0.6083,99.99,99.99,633.0,0.02,0.3,0.0,0.0,63.3,6.33,0.0
01:27:50,4.1240,0.0045,2.3771,0.6083,99.99,99.99,626.0,0.02,0.3,0.0,0.0,62.6,6.26,0.0
01:28:00,4.2720,0.0045,2.3771,0.6083,99.99,99.99,627.0,0.02,0.3,0.0,0.0,62.7,6.27,0.0
01:28:10,4.2180,0.0046,2.3772,0.6084,100.00,100.00,629.0,0.02,0.3,0.0,0.0,62.9,6.29,0.0
01:28:20,4.2610,0.0046,2.3772,0.6084,100.00,100.00,623.0,0.02,0.3,0.0,0.0,62.3,6.23,0.0
01:28:30,4.1220,0.0048,2.3773,0.6084,100.00,100.00,647.0,0.02,0.3,0.0,0.0,64.7,6.47,0.0
01:28:40,4.1690,0.0047,2.3774,0.6084,100.00,100.00,654.0,0.02,0.3,0.0,0.0,65.4,6.54,0.0