File: output/5/renogy-2.csv
Time,Voltage(V),Current(A),Energy(Wh),Capacity(Ah),Energy Proportion(%),Capacity Proportion(%),Irradiance(W/m2),Power(W),Sunlight Level
00:00:00,2.9410,1.4623,0.0119,0.0041,0.16,0.14,786.0,4.3,7.86
00:00:20,2.9100,1.4618,0.0356,0.0122,0.48,0.43,781.0,4.25,7.81
00:00:40,2.8930,1.4636,0.0592,0.0203,0.80,0.71,783.0,4.23,7.83
00:01:00,2.8820,1.4675,0.0827,0.0284,1.11,0.99,786.0,4.23,7.86
00:01:20,2.8180,1.4304,0.1054,0.0364,1.42,1.27,781.0,4.03,7.81
00:01:40,2.8120,1.4553,0.1281,0.0445,1.72,1.55,782.0,4.09,7.82
00:02:00,2.8030,1.4670,0.1510,0.0526,2.03,1.84,792.0,4.11,7.92
00:02:20,2.7890,1.4523,0.1736,0.0607,2.33,2.12,791.0,4.05,7.91
00:02:40,2.7800,1.4497,0.1959,0.0687,2.63,2.40,792.0,4.03,7.92
00:03:00,2.7770,1.4593,0.2183,0.0768,2.93,2.68,792.0,4.05,7.92
00:03:20,2.7610,1.4360,0.2405,0.0848,3.23,2.96,789.0,3.96,7.89
00:03:40,2.7580,1.4396,0.2625,0.0928,3.53,3.24,790.0,3.97,7.9
00:04:00,2.7510,1.4300,0.2844,0.1008,3.82,3.52,794.0,3.93,7.94
00:04:20,2.7470,1.4377,0.3063,0.1088,4.12,3.80,797.0,3.95,7.97
00:04:40,2.7320,1.4169,0.3281,0.1167,4.41,4.07,800.0,3.87,8.0
00:05:00,2.7090,1.4193,0.3495,0.1246,4.70,4.35,797.0,3.84,7.97
00:05:20,2.6940,1.3878,0.3698,0.1321,4.97,4.61,798.0,3.74,7.98
00:05:40,2.6860,1.3856,0.3906,0.1398,5.25,4.88,796.0,3.72,7.96
00:06:00,2.6800,1.3850,0.4112,0.1476,5.53,5.15,790.0,3.71,7.9
00:06:20,2.6550,1.3073,0.4311,0.1550,5.79,5.41,788.0,3.47,7.88
00:06:40,2.6480,1.3076,0.4504,0.1623,6.05,5.67,786.0,3.46,7.86
00:07:00,2.6590,1.3682,0.4706,0.1699,6.32,5.93,780.0,3.64,7.8
00:07:20,2.6630,1.3675,0.4903,0.1773,6.59,6.19,779.0,3.64,7.79
00:07:40,2.6350,1.2956,0.5098,0.1847,6.85,6.45,776.0,3.41,7.76
00:08:00,2.6270,1.2888,0.5287,0.1919,7.10,6.70,776.0,3.39,7.76
00:08:20,2.6190,1.2879,0.5474,0.1990,7.36,6.95,770.0,3.37,7.7
00:08:40,2.6200,1.3559,0.5666,0.2063,7.61,7.20,770.0,3.55,7.7
00:09:00,2.6250,1.3540,0.5864,0.2139,7.88,7.47,770.0,3.55,7.7
00:09:20,2.6200,1.3478,0.6060,0.2214,8.14,7.73,767.0,3.53,7.67
00:09:40,2.6150,1.3500,0.6256,0.2288,8.41,7.99,766.0,3.53,7.66
00:10:00,2.6040,1.3325,0.6445,0.2361,8.66,8.24,768.0,3.47,7.68
00:10:20,2.6080,1.3508,0.6640,0.2436,8.92,8.51,766.0,3.52,7.66
00:10:40,2.6060,1.3443,0.6835,0.2511,9.18,8.77,764.0,3.5,7.64
00:11:00,2.6010,1.3345,0.7029,0.2585,9.44,9.03,758.0,3.47,7.58
00:11:20,2.6010,1.3358,0.7216,0.2657,9.70,9.28,754.0,3.47,7.54
00:11:40,2.6040,1.3391,0.7409,0.2732,9.96,9.54,754.0,3.49,7.54
00:12:00,2.6820,1.3395,0.7528,0.2773,10.11,9.68,761.0,3.59,7.61
00:12:20,2.7050,1.3456,0.7729,0.2847,10.39,9.94,763.0,3.64,7.63
00:12:40,2.7230,1.3477,0.7933,0.2922,10.66,10.20,765.0,3.67,7.65
00:13:00,2.7380,1.3437,0.8137,0.2997,10.93,10.46,761.0,3.68,7.61
00:13:20,2.7520,1.3383,0.8342,0.3071,11.21,10.72,760.0,3.68,7.6
00:13:40,2.7650,1.3323,0.8547,0.3145,11.48,10.98,756.0,3.68,7.56
00:14:00,2.7630,1.2614,0.8740,0.3216,11.74,11.23,756.0,3.49,7.56
00:14:20,2.7690,1.2630,0.8934,0.3286,12.00,11.47,757.0,3.5,7.57
00:14:40,2.7790,1.2636,0.9129,0.3356,12.27,11.72,757.0,3.51,7.57
00:15:00,2.7890,1.2654,0.9325,0.3426,12.53,11.96,755.0,3.53,7.55
00:15:20,2.7900,1.2652,0.9521,0.3496,12.79,12.21,757.0,3.53,7.57
00:15:40,2.7940,1.2531,0.9716,0.3566,13.05,12.45,751.0,3.5,7.51
00:16:00,2.7950,1.2524,0.9909,0.3635,13.31,12.69,748.0,3.5,7.48
00:16:20,2.8130,1.3180,1.0115,0.3709,13.59,12.95,756.0,3.71,7.56
00:16:40,2.8170,1.3238,1.0322,0.3782,13.87,13.21,758.0,3.73,7.58
00:17:00,2.8110,1.2700,1.0524,0.3854,14.14,13.46,759.0,3.57,7.59
00:17:20,2.8120,1.2728,1.0723,0.3925,14.41,13.70,761.0,3.58,7.61
00:17:40,2.8280,1.3425,1.0928,0.3997,14.68,13.96,764.0,3.8,7.64
00:18:00,2.8130,1.3431,1.1139,0.4072,14.97,14.22,764.0,3.78,7.64
00:18:20,2.8080,1.3475,1.1349,0.4147,15.25,14.48,769.0,3.78,7.69
00:18:40,2.7960,1.3150,1.1555,0.4221,15.53,14.74,748.0,3.68,7.48
00:19:00,2.8000,1.3032,1.1760,0.4294,15.80,14.99,744.0,3.65,7.44
00:19:20,2.7440,1.1403,1.1951,0.4362,16.06,15.23,669.0,3.13,6.69
00:19:40,2.7270,1.2637,1.2120,0.4425,16.29,15.45,667.0,3.45,6.67
00:20:00,2.7260,1.3253,1.2321,0.4499,16.55,15.71,751.0,3.61,7.51
00:20:20,2.7150,1.3368,1.2522,0.4573,16.83,15.97,759.0,3.63,7.59
00:20:40,2.7040,1.3456,1.2725,0.4647,17.10,16.23,763.0,3.64,7.63
00:21:00,2.6930,1.3500,1.2926,0.4722,17.37,16.49,767.0,3.64,7.67
00:21:20,2.6840,1.3579,1.3127,0.4797,17.64,16.75,770.0,3.64,7.7
00:21:40,2.6740,1.3636,1.3329,0.4873,17.91,17.01,770.0,3.65,7.7
00:22:00,2.6680,1.3695,1.3532,0.4949,18.18,17.28,776.0,3.65,7.76
00:22:20,2.6610,1.3711,1.3735,0.5025,18.45,17.54,780.0,3.65,7.8
00:22:40,2.6560,1.3755,1.3938,0.5101,18.73,17.81,784.0,3.65,7.84
00:23:00,2.6490,1.3833,1.4141,0.5178,19.00,18.08,788.0,3.66,7.88
00:23:20,2.6310,1.3309,1.4339,0.5253,19.27,18.34,775.0,3.5,7.75
00:23:40,2.4180,0.4395,1.4420,0.5286,19.37,18.45,243.0,1.06,2.43
00:24:00,2.3990,0.3403,1.4468,0.5306,19.44,18.52,154.6,0.82,1.546
00:24:20,2.4050,0.3363,1.4513,0.5324,19.50,18.59,154.0,0.81,1.54
00:24:40,2.4100,0.3302,1.4557,0.5343,19.56,18.65,151.9,0.8,1.519
00:25:00,2.4140,0.3283,1.4601,0.5361,19.62,18.72,150.9,0.79,1.509
00:25:20,2.4240,0.3259,1.4645,0.5379,19.68,18.78,149.7,0.79,1.497
00:25:40,2.4220,0.3217,1.4688,0.5397,19.74,18.84,147.8,0.78,1.478
00:26:00,2.4280,0.3260,1.4732,0.5415,19.79,18.91,150.7,0.79,1.507
00:26:20,2.4370,0.3355,1.4777,0.5434,19.86,18.97,153.9,0.82,1.539
00:26:40,2.4660,0.3908,1.4827,0.5454,19.92,19.04,170.6,0.96,1.706
00:27:00,2.5920,0.8900,1.4931,0.5494,20.06,19.18,423.0,2.31,4.23
00:27:20,2.5310,0.6598,1.5037,0.5536,20.20,19.33,287.0,1.67,2.87
00:27:40,2.7150,1.4546,1.5251,0.5615,20.49,19.61,815.0,3.95,8.15
00:28:00,2.6930,1.4358,1.5469,0.5695,20.78,19.89,813.0,3.87,8.13
00:28:20,2.6690,1.3959,1.5677,0.5773,21.06,20.16,806.0,3.73,8.06
00:28:40,2.6660,1.3945,1.5883,0.5851,21.34,20.43,804.0,3.72,8.04
00:29:00,2.6600,1.3929,1.6090,0.5928,21.62,20.70,802.0,3.71,8.02
00:29:20,2.6490,1.3877,1.6294,0.6005,21.89,20.97,798.0,3.68,7.98
00:29:40,2.6470,1.3852,1.6498,0.6082,22.17,21.24,798.0,3.67,7.98
00:30:00,2.6460,1.3844,1.6702,0.6159,22.44,21.51,793.0,3.66,7.93
00:30:20,2.6350,1.3790,1.6904,0.6236,22.71,21.77,791.0,3.63,7.91
00:30:40,2.6240,1.3731,1.7105,0.6312,22.98,22.04,783.0,3.6,7.83
00:31:00,2.6160,1.3707,1.7304,0.6389,23.25,22.31,781.0,3.59,7.81
00:31:20,2.6110,1.3643,1.7502,0.6464,23.52,22.57,780.0,3.56,7.8
00:31:40,2.6100,1.3640,1.7700,0.6540,23.78,22.84,778.0,3.56,7.78
00:32:00,2.6110,1.3628,1.7898,0.6616,24.05,23.10,778.0,3.56,7.78
00:32:20,2.6120,1.3675,1.8096,0.6692,24.31,23.36,781.0,3.57,7.81
00:32:40,2.5980,1.3216,1.8290,0.6766,24.58,23.63,783.0,3.43,7.83
00:33:00,2.5920,1.3175,1.8480,0.6840,24.83,23.88,780.0,3.41,7.8
00:33:20,2.5830,1.3014,1.8668,0.6912,25.08,24.13,773.0,3.36,7.73
00:33:40,2.6630,1.2864,1.8856,0.6984,25.34,24.39,766.0,3.43,7.66
00:34:00,2.6740,1.2694,1.9045,0.7055,25.59,24.63,755.0,3.39,7.55
00:34:20,2.6910,1.2622,1.9234,0.7125,25.84,24.88,754.0,3.4,7.54
00:34:40,2.7060,1.2503,1.9422,0.7195,26.10,25.12,748.0,3.38,7.48
00:35:00,2.7280,1.2652,1.9612,0.7265,26.35,25.36,754.0,3.45,7.54
00:35:20,2.7340,1.2512,1.9803,0.7334,26.61,25.61,752.0,3.42,7.52
00:35:40,2.7380,1.2195,1.9983,0.7400,26.85,25.84,702.0,3.34,7.02
00:36:00,2.7740,1.3207,2.0184,0.7473,27.12,26.09,740.0,3.66,7.4
00:36:20,2.7840,1.3364,2.0390,0.7547,27.40,26.35,767.0,3.72,7.67
00:36:40,2.7930,1.3479,2.0598,0.7622,27.68,26.61,773.0,3.76,7.73
00:37:00,2.7820,1.3098,2.0804,0.7695,27.95,26.87,779.0,3.64,7.79
00:37:20,2.7910,1.3149,2.1008,0.7768,28.23,27.12,783.0,3.67,7.83
00:37:40,2.7980,1.3119,2.1212,0.7841,28.50,27.38,782.0,3.67,7.82
00:38:00,2.8070,1.3294,2.1421,0.7916,28.78,27.64,745.0,3.73,7.45
00:38:20,2.7940,1.2778,2.1625,0.7989,29.06,27.89,748.0,3.57,7.48
00:38:40,2.7160,1.1583,2.1800,0.8053,29.29,28.12,574.0,3.15,5.74
00:39:00,2.7640,1.3811,2.2012,0.8129,29.58,28.38,786.0,3.82,7.86
00:39:20,2.7080,1.2051,2.2201,0.8199,29.83,28.63,737.0,3.26,7.37
00:39:40,2.5920,0.7588,2.2304,0.8239,29.97,28.77,437.0,1.97,4.37
00:40:00,2.5270,0.4837,2.2372,0.8265,30.06,28.86,204.0,1.22,2.04
00:40:20,2.5170,0.4582,2.2435,0.8290,30.14,28.95,210.0,1.15,2.1
00:40:40,2.5750,0.6706,2.2524,0.8325,30.26,29.07,374.0,1.73,3.74
00:41:00,2.5170,0.4580,2.2597,0.8354,30.36,29.17,215.0,1.15,2.15
00:41:20,2.5540,0.5713,2.2670,0.8383,30.46,29.27,271.0,1.46,2.71
00:41:40,2.5990,0.7538,2.2764,0.8419,30.59,29.40,316.0,1.96,3.16
00:42:00,2.6820,1.1446,2.2914,0.8476,30.79,29.59,613.0,3.07,6.13
00:42:20,2.7090,1.3235,2.3105,0.8546,31.05,29.84,744.0,3.59,7.44
00:42:40,2.7090,1.3710,2.3311,0.8622,31.32,30.11,786.0,3.71,7.86
00:43:00,2.7030,1.3799,2.3518,0.8699,31.60,30.37,791.0,3.73,7.91
00:43:20,2.6940,1.3837,2.3725,0.8776,31.88,30.64,793.0,3.73,7.93
00:43:40,2.6800,1.3753,2.3931,0.8852,32.15,30.91,779.0,3.69,7.79
00:44:00,2.6450,1.2471,2.4125,0.8925,32.42,31.16,783.0,3.3,7.83
00:44:20,2.6730,1.3786,2.4316,0.8997,32.67,31.41,753.0,3.68,7.53
00:44:40,2.6060,1.1032,2.4496,0.9065,32.91,31.65,609.0,2.87,6.09
00:45:00,2.5820,0.9983,2.4608,0.9109,33.06,31.81,346.0,2.58,3.46
00:45:20,2.6560,1.3583,2.4810,0.9185,33.34,32.07,778.0,3.61,7.78
00:45:40,2.6510,1.3581,2.5010,0.9261,33.60,32.33,776.0,3.6,7.76
00:46:00,2.6470,1.3630,2.5210,0.9336,33.87,32.60,777.0,3.61,7.77
00:46:20,2.6420,1.3591,2.5410,0.9412,34.14,32.86,778.0,3.59,7.78
00:46:40,2.6350,1.3520,2.5608,0.9487,34.41,33.12,777.0,3.56,7.77
00:47:00,2.4530,0.6145,2.5745,0.9540,34.59,33.31,332.0,1.51,3.32
00:47:20,2.6430,1.3954,2.5945,0.9616,34.86,33.58,796.0,3.69,7.96
00:47:40,2.4360,0.5542,2.6059,0.9661,35.01,33.73,274.0,1.35,2.74
00:48:00,2.4100,0.4604,2.6135,0.9693,35.12,33.84,306.0,1.11,3.06
00:48:20,2.4260,0.4705,2.6196,0.9718,35.20,33.93,218.0,1.14,2.18
00:48:40,2.4290,0.4448,2.6258,0.9743,35.28,34.02,217.0,1.08,2.17
00:49:00,2.4560,0.5204,2.6324,0.9770,35.37,34.11,246.0,1.28,2.46
00:49:20,2.4530,0.5026,2.6392,0.9798,35.46,34.21,251.0,1.23,2.51
00:49:40,2.5770,0.9877,2.6508,0.9844,35.62,34.37,472.0,2.55,4.72
00:50:00,2.6620,1.3753,2.6708,0.9919,35.89,34.63,786.0,3.66,7.86
00:50:20,2.6520,1.3613,2.6909,0.9995,36.16,34.90,778.0,3.61,7.78
00:50:40,2.6510,1.3539,2.7109,1.0070,36.43,35.16,775.0,3.59,7.75
00:51:00,2.6520,1.3485,2.7308,1.0145,36.69,35.42,768.0,3.58,7.68
00:51:20,2.6450,1.3413,2.7505,1.0220,36.96,35.68,766.0,3.55,7.66
00:51:40,2.6440,1.3368,2.7701,1.0294,37.22,35.94,763.0,3.53,7.63
00:52:00,2.6190,1.2640,2.7891,1.0366,37.48,36.19,735.0,3.31,7.35
00:52:20,2.5610,1.0148,2.8061,1.0431,37.70,36.42,658.0,2.6,6.58
00:52:40,2.4200,0.4424,2.8133,1.0461,37.80,36.52,208.0,1.07,2.08
00:53:00,2.4640,0.5447,2.8212,1.0493,37.91,36.64,270.0,1.34,2.7
00:53:20,2.6010,1.0801,2.8358,1.0549,38.10,36.83,564.0,2.81,5.64
00:53:40,2.5400,0.8166,2.8453,1.0587,38.23,36.97,384.0,2.07,3.84
00:54:00,2.6550,1.3303,2.8634,1.0656,38.47,37.20,700.0,3.53,7.0
00:54:20,2.6490,1.3459,2.8833,1.0731,38.74,37.47,746.0,3.57,7.46
00:54:40,2.6390,1.3529,2.9031,1.0806,39.01,37.73,752.0,3.57,7.52
00:55:00,2.6270,1.3379,2.9227,1.0880,39.27,37.99,746.0,3.51,7.46
00:55:20,2.6160,1.3215,2.9420,1.0954,39.53,38.25,736.0,3.46,7.36
00:55:40,2.6040,1.2921,2.9609,1.1026,39.78,38.50,731.0,3.36,7.31
00:56:00,2.5980,1.2942,2.9796,1.1098,40.04,38.75,732.0,3.36,7.32
00:56:20,2.5950,1.3050,2.9984,1.1171,40.29,39.00,733.0,3.39,7.33
00:56:40,2.5780,1.2439,3.0166,1.1241,40.53,39.25,712.0,3.21,7.12
00:57:00,2.5470,1.1274,3.0336,1.1307,40.76,39.48,710.0,2.87,7.1
00:57:20,2.3570,0.3554,3.0383,1.1327,40.82,39.55,164.4,0.84,1.644
00:57:40,2.3650,0.3510,3.0429,1.1347,40.89,39.62,161.2,0.83,1.612
00:58:00,2.3720,0.3497,3.0475,1.1366,40.95,39.69,162.2,0.83,1.622
00:58:20,2.3830,0.3556,3.0521,1.1386,41.01,39.75,164.4,0.85,1.644
00:58:40,2.4000,0.3801,3.0571,1.1406,41.08,39.83,176.1,0.91,1.761
00:59:00,2.4230,0.4421,3.0628,1.1430,41.15,39.91,197.7,1.07,1.977
00:59:20,2.4620,0.5791,3.0723,1.1468,41.28,40.04,372.0,1.43,3.72
00:59:40,2.4450,0.5036,3.0791,1.1496,41.37,40.14,295.0,1.23,2.95
01:00:00,2.4040,0.3438,3.0838,1.1515,41.44,40.21,160.3,0.83,1.603
01:00:20,2.4060,0.3318,3.0883,1.1534,41.50,40.27,154.8,0.8,1.548
01:00:40,2.4070,0.3259,3.0926,1.1552,41.55,40.33,152.0,0.78,1.52
01:01:00,2.4120,0.3236,3.0970,1.1570,41.61,40.40,151.8,0.78,1.518
01:01:20,2.4170,0.3239,3.1013,1.1588,41.67,40.46,152.1,0.78,1.521
01:01:40,2.4260,0.3344,3.1058,1.1607,41.73,40.52,154.1,0.81,1.541
01:02:00,2.4470,0.3583,3.1106,1.1626,41.80,40.59,163.7,0.88,1.637
01:02:20,2.6040,0.9399,3.1201,1.1663,41.92,40.72,383.0,2.45,3.83
01:02:40,2.6620,1.2223,3.1360,1.1724,42.14,40.93,590.0,3.25,5.9
01:03:00,2.6720,1.2885,3.1552,1.1795,42.39,41.18,706.0,3.44,7.06
01:03:20,2.6590,1.2705,3.1740,1.1866,42.65,41.43,694.0,3.38,6.94
01:03:40,2.5120,0.7032,3.1881,1.1920,42.84,41.62,520.0,1.77,5.2
01:04:00,2.4140,0.3572,3.1930,1.1941,42.90,41.69,173.8,0.86,1.738
01:04:20,2.4190,0.3540,3.1977,1.1960,42.97,41.76,169.6,0.86,1.696
01:04:40,2.4320,0.3783,3.2027,1.1980,43.03,41.83,171.1,0.92,1.711
01:05:00,2.4570,0.4455,3.2088,1.2005,43.12,41.92,206.0,1.09,2.06
01:05:20,2.5090,0.6320,3.2165,1.2037,43.22,42.03,330.0,1.59,3.3
01:05:40,2.4390,0.3715,3.2222,1.2059,43.29,42.11,176.0,0.91,1.76
01:06:00,2.4310,0.3297,3.2266,1.2078,43.35,42.17,149.5,0.8,1.495
01:06:20,2.4410,0.3329,3.2312,1.2096,43.42,42.24,153.4,0.81,1.534
01:06:40,2.4440,0.3232,3.2356,1.2115,43.48,42.30,149.7,0.79,1.497
01:07:00,2.4490,0.3173,3.2399,1.2132,43.53,42.36,143.9,0.78,1.439
01:07:20,2.4540,0.3137,3.2442,1.2150,43.59,42.42,142.6,0.77,1.426
01:07:40,2.4570,0.3139,3.2485,1.2167,43.65,42.48,143.1,0.77,1.431
01:08:00,2.4610,0.3138,3.2527,1.2184,43.71,42.54,143.2,0.77,1.432
01:08:20,2.4680,0.3143,3.2570,1.2202,43.76,42.60,143.4,0.78,1.434
01:08:40,2.4760,0.3169,3.2614,1.2219,43.82,42.66,144.2,0.78,1.442
01:09:00,2.4790,0.3185,3.2658,1.2237,43.88,42.73,144.4,0.79,1.444
01:09:20,2.4740,0.3176,3.2701,1.2255,43.94,42.79,144.2,0.79,1.442
01:09:40,2.4820,0.3242,3.2746,1.2273,44.00,42.85,145.3,0.8,1.453
01:10:00,2.5040,0.3652,3.2794,1.2292,44.06,42.92,159.3,0.91,1.593
01:10:20,2.5050,0.3579,3.2844,1.2312,44.13,42.99,162.8,0.9,1.628
01:10:40,2.5070,0.3504,3.2893,1.2332,44.20,43.06,163.3,0.88,1.633
01:11:00,2.4970,0.3410,3.2941,1.2351,44.26,43.12,156.5,0.85,1.565
01:11:20,2.4950,0.3249,3.2987,1.2369,44.32,43.19,149.7,0.81,1.497
01:11:40,2.5010,0.3302,3.3033,1.2388,44.38,43.25,148.8,0.83,1.488
01:12:00,2.5000,0.3239,3.3078,1.2406,44.45,43.31,145.2,0.81,1.452
01:12:20,2.5020,0.3262,3.3123,1.2424,44.51,43.38,147.0,0.82,1.47
01:12:40,2.5060,0.3281,3.3169,1.2442,44.57,43.44,147.5,0.82,1.475
01:13:00,2.5060,0.3187,3.3213,1.2460,44.63,43.50,147.2,0.8,1.472
01:13:20,2.5100,0.3237,3.3258,1.2477,44.69,43.57,150.0,0.81,1.5
01:13:40,2.5160,0.3335,3.3304,1.2496,44.75,43.63,154.0,0.84,1.54
01:14:00,2.5170,0.3437,3.3352,1.2515,44.81,43.70,157.7,0.87,1.577
01:14:20,2.5480,0.4445,3.3408,1.2537,44.89,43.77,180.3,1.13,1.803
01:14:40,2.7260,1.1999,3.3566,1.2596,45.10,43.98,601.0,3.27,6.01
01:15:00,2.7260,1.2531,3.3756,1.2665,45.36,44.22,658.0,3.42,6.58
01:15:20,2.6930,1.1514,3.3936,1.2732,45.60,44.45,603.0,3.1,6.03
01:15:40,2.4750,0.3294,3.4028,1.2767,45.72,44.58,159.6,0.82,1.596
01:16:00,2.4720,0.3008,3.4070,1.2784,45.78,44.63,132.6,0.74,1.326
01:16:20,2.4750,0.2996,3.4111,1.2800,45.83,44.69,131.4,0.74,1.314
01:16:40,2.4760,0.2954,3.4152,1.2817,45.89,44.75,128.5,0.73,1.285
01:17:00,2.4790,0.2903,3.4192,1.2833,45.94,44.81,125.5,0.72,1.255
01:17:20,2.4820,0.2859,3.4231,1.2849,46.00,44.86,122.4,0.71,1.224
01:17:40,2.4820,0.2817,3.4270,1.2865,46.05,44.92,119.7,0.7,1.197
01:18:00,2.4830,0.2758,3.4309,1.2880,46.10,44.97,116.7,0.68,1.167
01:18:20,2.4860,0.2690,3.4346,1.2895,46.15,45.02,112.6,0.67,1.126
01:18:40,2.4870,0.2608,3.4382,1.2910,46.20,45.07,108.5,0.65,1.085
01:19:00,2.4880,0.2541,3.4418,1.2924,46.25,45.12,104.7,0.63,1.047
01:19:20,2.4810,0.2479,3.4452,1.2938,46.29,45.17,101.0,0.62,1.01
01:19:40,2.4810,0.2438,3.4486,1.2951,46.34,45.22,98.3,0.6,0.983
01:20:00,2.4820,0.2419,3.4519,1.2965,46.38,45.27,97.5,0.6,0.975
01:20:20,2.4830,0.2416,3.4552,1.2978,46.43,45.31,97.2,0.6,0.972
01:20:40,2.4850,0.2426,3.4586,1.2992,46.47,45.36,98.0,0.6,0.98
01:21:00,2.4900,0.2450,3.4620,1.3005,46.52,45.41,99.7,0.61,0.997
01:21:20,2.4920,0.2451,3.4654,1.3019,46.56,45.46,99.8,0.61,0.998
01:21:40,2.4960,0.2464,3.4688,1.3033,46.61,45.50,99.5,0.62,0.995
01:22:00,2.5020,0.2472,3.4722,1.3046,46.65,45.55,99.6,0.62,0.996
01:22:20,2.5080,0.2499,3.4757,1.3060,46.70,45.60,100.6,0.63,1.006
01:22:40,2.5130,0.2571,3.4792,1.3074,46.75,45.65,104.4,0.65,1.044
01:23:00,2.5190,0.2676,3.4829,1.3089,46.80,45.70,110.2,0.67,1.102
01:23:20,2.5310,0.2786,3.4868,1.3104,46.85,45.75,115.8,0.71,1.158
01:23:40,2.5340,0.2903,3.4908,1.3120,46.90,45.81,122.3,0.74,1.223
01:24:00,2.5370,0.3046,3.4951,1.3137,46.96,45.87,128.5,0.77,1.285
01:24:20,2.5400,0.3248,3.4996,1.3155,47.02,45.93,136.3,0.82,1.363
01:24:40,2.5490,0.3561,3.5045,1.3174,47.09,46.00,147.9,0.91,1.479
01:25:00,2.5910,0.5037,3.5110,1.3199,47.18,46.09,210.0,1.31,2.1
01:25:20,2.6830,0.8845,3.5225,1.3242,47.33,46.24,399.0,2.37,3.99
01:25:40,2.7510,1.1571,3.5394,1.3304,47.56,46.45,581.0,3.18,5.81
01:26:00,2.7440,1.2192,3.5577,1.3371,47.80,46.68,619.0,3.35,6.19
01:26:20,2.7240,1.1932,3.5759,1.3437,48.05,46.92,619.0,3.25,6.19
01:26:40,2.7080,1.1770,3.5937,1.3503,48.29,47.15,608.0,3.19,6.08
01:27:00,2.6970,1.1703,3.6113,1.3568,48.52,47.37,602.0,3.16,6.02
01:27:20,2.6840,1.1650,3.6287,1.3633,48.76,47.60,596.0,3.13,5.96
01:27:40,2.6710,1.1532,3.6459,1.3697,48.99,47.82,593.0,3.08,5.93
01:28:00,2.6610,1.1412,3.6628,1.3761,49.22,48.05,586.0,3.04,5.86
01:28:20,2.6470,1.1268,3.6794,1.3824,49.44,48.27,584.0,2.98,5.84
01:28:40,2.6380,1.1338,3.6960,1.3887,49.66,48.49,581.0,2.99,5.81
01:29:00,2.6300,1.1252,3.7125,1.3949,49.88,48.70,576.0,2.96,5.76
01:29:20,2.6240,1.1258,3.7289,1.4012,50.10,48.92,576.0,2.95,5.76
01:29:40,2.6190,1.1297,3.7454,1.4075,50.33,49.14,576.0,2.96,5.76
01:30:00,2.6160,1.1290,3.7618,1.4137,50.55,49.36,576.0,2.95,5.76
01:30:20,2.6140,1.1144,3.7781,1.4200,50.76,49.58,572.0,2.91,5.72
01:30:40,2.6040,1.0969,3.7940,1.4261,50.98,49.79,563.0,2.86,5.63
01:31:00,2.5840,1.0207,3.8091,1.4319,51.18,50.00,527.0,2.64,5.27
01:31:20,2.5090,0.6915,3.8205,1.4364,51.33,50.15,365.0,1.73,3.65
01:31:40,2.5140,0.6743,3.8296,1.4400,51.46,50.28,313.0,1.7,3.13
01:32:00,2.5970,1.0375,3.8429,1.4452,51.64,50.46,498.0,2.69,4.98
01:32:20,2.6060,1.0735,3.8585,1.4511,51.84,50.67,545.0,2.8,5.45
01:32:40,2.6140,1.0977,3.8744,1.4572,52.06,50.88,560.0,2.87,5.6
01:33:00,2.6130,1.1034,3.8904,1.4634,52.27,51.09,561.0,2.88,5.61
01:33:20,2.6100,1.1054,3.9064,1.4695,52.49,51.31,562.0,2.89,5.62
01:33:40,2.6080,1.1051,3.9224,1.4756,52.70,51.52,563.0,2.88,5.63
01:34:00,2.6070,1.1067,3.9385,1.4818,52.92,51.74,563.0,2.89,5.63
01:34:20,2.5990,1.1061,3.9544,1.4879,53.13,51.95,563.0,2.87,5.63
01:34:40,2.5910,1.0999,3.9703,1.4940,53.35,52.17,561.0,2.85,5.61
01:35:00,2.5900,1.1001,3.9861,1.5002,53.56,52.38,560.0,2.85,5.6
01:35:20,2.5940,1.1035,4.0020,1.5063,53.77,52.59,560.0,2.86,5.6
01:35:40,2.5890,1.1030,4.0179,1.5124,53.99,52.81,561.0,2.86,5.61
01:36:00,2.5880,1.1006,4.0337,1.5185,54.20,53.02,558.0,2.85,5.58
01:36:20,2.5860,1.0979,4.0495,1.5246,54.41,53.23,560.0,2.84,5.6
01:36:40,2.5780,1.0830,4.0650,1.5306,54.62,53.44,558.0,2.79,5.58
01:37:00,2.5770,1.0856,4.0806,1.5367,54.83,53.65,560.0,2.8,5.6
01:37:20,2.5700,1.0559,4.0957,1.5425,55.03,53.86,555.0,2.71,5.55
01:37:40,2.5670,1.0549,4.1107,1.5484,55.23,54.06,554.0,2.71,5.54
01:38:00,2.5650,1.0472,4.1257,1.5542,55.43,54.27,554.0,2.69,5.54
01:38:20,2.5610,1.0465,4.1406,1.5601,55.64,54.47,553.0,2.68,5.53
01:38:40,2.5580,1.0417,4.1554,1.5658,55.83,54.67,553.0,2.66,5.53
01:39:00,2.5580,1.0374,4.1702,1.5716,56.03,54.87,549.0,2.65,5.49
01:39:20,2.5610,1.0378,4.1850,1.5774,56.23,55.08,549.0,2.66,5.49
01:39:40,2.5580,1.0356,4.1997,1.5831,56.43,55.28,547.0,2.65,5.47
01:40:00,2.5560,1.0364,4.2144,1.5889,56.63,55.48,546.0,2.65,5.46
01:40:20,2.5500,1.0315,4.2290,1.5946,56.82,55.68,546.0,2.63,5.46
01:40:40,2.5580,1.0351,4.2437,1.6004,57.02,55.88,544.0,2.65,5.44
01:41:00,2.5510,1.0193,4.2582,1.6061,57.22,56.08,542.0,2.6,5.42
01:41:20,2.5520,1.0169,4.2726,1.6117,57.41,56.27,542.0,2.6,5.42
01:41:40,2.5540,1.0274,4.2871,1.6174,57.60,56.47,539.0,2.62,5.39
01:42:00,2.5450,1.0068,4.3014,1.6230,57.80,56.67,538.0,2.56,5.38
01:42:20,2.5420,1.0011,4.3155,1.6286,57.99,56.86,535.0,2.54,5.35
01:42:40,2.5420,1.0047,4.3297,1.6341,58.18,57.06,534.0,2.55,5.34
01:43:00,2.5460,1.0134,4.3439,1.6397,58.37,57.25,533.0,2.58,5.33
01:43:20,2.5540,1.0184,4.3583,1.6454,58.56,57.45,532.0,2.6,5.32
01:43:40,2.5500,1.0170,4.3728,1.6510,58.75,57.65,531.0,2.59,5.31
01:44:00,2.5460,1.0154,4.3871,1.6567,58.95,57.84,531.0,2.59,5.31
01:44:20,2.5450,1.0179,4.4015,1.6623,59.14,58.04,531.0,2.59,5.31
01:44:40,2.5390,1.0139,4.4159,1.6680,59.33,58.24,530.0,2.57,5.3
01:45:00,2.5370,1.0087,4.4301,1.6736,59.53,58.43,530.0,2.56,5.3
01:45:20,2.5370,1.0099,4.4443,1.6792,59.72,58.63,530.0,2.56,5.3
01:45:40,2.5390,1.0106,4.4586,1.6848,59.91,58.83,529.0,2.57,5.29
01:46:00,2.5390,1.0074,4.4728,1.6904,60.10,59.02,528.0,2.56,5.28
01:46:20,2.5370,1.0057,4.4870,1.6960,60.29,59.22,526.0,2.55,5.26
01:46:40,2.5350,1.0044,4.5012,1.7016,60.48,59.41,524.0,2.55,5.24
01:47:00,2.5250,0.9575,4.5150,1.7070,60.67,59.60,523.0,2.42,5.23
01:47:20,2.5410,1.0065,4.5288,1.7125,60.85,59.79,522.0,2.56,5.22
01:47:40,2.5410,1.0060,4.5430,1.7181,61.04,59.99,522.0,2.56,5.22
01:48:00,2.5390,1.0039,4.5571,1.7236,61.23,60.18,521.0,2.55,5.21
01:48:20,2.5390,1.0031,4.5713,1.7292,61.42,60.38,521.0,2.55,5.21
01:48:40,2.5360,1.0016,4.5854,1.7348,61.61,60.57,520.0,2.54,5.2
01:49:00,2.5340,1.0013,4.5995,1.7403,61.80,60.76,519.0,2.54,5.19
01:49:20,2.5350,1.0019,4.6136,1.7459,61.99,60.96,519.0,2.54,5.19
01:49:40,2.5330,0.9999,4.6277,1.7515,62.18,61.15,520.0,2.53,5.2
01:50:00,2.5330,0.9984,4.6418,1.7570,62.37,61.35,518.0,2.53,5.18
01:50:20,2.5280,0.9994,4.6558,1.7626,62.56,61.54,516.0,2.53,5.16
01:50:40,2.5270,0.9991,4.6698,1.7681,62.75,61.73,516.0,2.52,5.16
01:51:00,2.5170,0.9496,4.6831,1.7734,62.92,61.92,516.0,2.39,5.16
01:51:20,2.5230,0.9529,4.6964,1.7787,63.10,62.10,518.0,2.4,5.18
01:51:40,2.5240,0.9581,4.7098,1.7840,63.28,62.29,521.0,2.42,5.21
01:52:00,2.5230,0.9605,4.7233,1.7893,63.46,62.48,522.0,2.42,5.22
01:52:20,2.5220,0.9621,4.7368,1.7947,63.65,62.66,523.0,2.43,5.23
01:52:40,2.5220,0.9576,4.7502,1.8000,63.83,62.85,519.0,2.42,5.19
01:53:00,2.5220,0.9695,4.7637,1.8054,64.01,63.03,516.0,2.45,5.16
01:53:20,2.5250,0.9828,4.7775,1.8108,64.19,63.23,510.0,2.48,5.1
01:53:40,2.5230,0.9830,4.7913,1.8163,64.38,63.42,511.0,2.48,5.11
01:54:00,2.5210,0.9788,4.8050,1.8217,64.56,63.61,507.0,2.47,5.07
01:54:20,2.5210,0.9770,4.8187,1.8272,64.75,63.80,506.0,2.46,5.06
01:54:40,2.5220,0.9786,4.8324,1.8326,64.93,63.99,505.0,2.47,5.05
01:55:00,2.5240,0.9755,4.8461,1.8380,65.12,64.18,506.0,2.46,5.06
01:55:20,2.5210,0.9597,4.8597,1.8434,65.30,64.36,498.0,2.42,4.98
01:55:40,2.5100,0.8953,4.8726,1.8485,65.47,64.54,485.0,2.25,4.85
01:56:00,2.5050,0.8830,4.8852,1.8535,65.64,64.72,481.0,2.21,4.81
01:56:20,2.5260,0.9551,4.8977,1.8585,65.81,64.89,494.0,2.41,4.94
01:56:40,2.5270,0.9600,4.9112,1.8639,65.99,65.08,499.0,2.43,4.99
01:57:00,2.5180,0.9199,4.9244,1.8691,66.17,65.26,498.0,2.32,4.98
01:57:20,2.5170,0.9155,4.9372,1.8742,66.34,65.44,497.0,2.3,4.97
01:57:40,2.5160,0.9107,4.9499,1.8792,66.51,65.61,495.0,2.29,4.95
01:58:00,2.5140,0.9143,4.9626,1.8843,66.68,65.79,495.0,2.3,4.95
01:58:20,2.5140,0.9157,4.9754,1.8894,66.85,65.97,495.0,2.3,4.95
01:58:40,2.5140,0.9187,4.9882,1.8945,67.02,66.15,496.0,2.31,4.96
01:59:00,2.5170,0.9229,5.0011,1.8996,67.20,66.33,499.0,2.32,4.99
01:59:20,2.5130,0.9218,5.0140,1.9047,67.37,66.50,499.0,2.32,4.99
01:59:40,2.5160,0.9254,5.0269,1.9099,67.54,66.68,498.0,2.33,4.98
02:00:00,2.5200,0.9264,5.0399,1.9150,67.72,66.86,499.0,2.33,4.99
02:00:20,2.5210,0.9247,5.0529,1.9202,67.89,67.04,497.0,2.33,4.97
02:00:40,2.5180,0.9213,5.0658,1.9253,68.07,67.22,494.0,2.32,4.94
02:01:00,2.5180,0.9189,5.0786,1.9304,68.24,67.40,494.0,2.31,4.94
02:01:20,2.5180,0.9178,5.0915,1.9355,68.41,67.58,493.0,2.31,4.93
02:01:40,2.5170,0.9131,5.1043,1.9406,68.58,67.76,492.0,2.3,4.92
02:02:00,2.5220,0.9111,5.1170,1.9456,68.76,67.93,490.0,2.3,4.9
02:02:20,2.5330,0.9520,5.1301,1.9508,68.93,68.11,487.0,2.41,4.87
02:02:40,2.5280,0.9472,5.1434,1.9561,69.11,68.30,484.0,2.39,4.84
02:03:00,2.5210,0.9453,5.1567,1.9613,69.29,68.48,484.0,2.38,4.84
02:03:20,2.5210,0.9418,5.1699,1.9666,69.47,68.66,482.0,2.37,4.82
02:03:40,2.5210,0.9429,5.1831,1.9718,69.64,68.85,482.0,2.38,4.82
02:04:00,2.5240,0.9440,5.1963,1.9771,69.82,69.03,481.0,2.38,4.81
02:04:20,2.5230,0.9462,5.2096,1.9823,70.00,69.21,482.0,2.39,4.82
02:04:40,2.5230,0.9451,5.2229,1.9876,70.18,69.40,482.0,2.38,4.82
02:05:00,2.5210,0.9450,5.2361,1.9928,70.35,69.58,481.0,2.38,4.81
02:05:20,2.5230,0.9471,5.2493,1.9981,70.53,69.76,482.0,2.39,4.82
02:05:40,2.5290,0.9505,5.2627,2.0033,70.71,69.95,484.0,2.4,4.84
02:06:00,2.5280,0.9513,5.2760,2.0086,70.89,70.13,485.0,2.4,4.85
02:06:20,2.5290,0.9561,5.2894,2.0139,71.07,70.32,488.0,2.42,4.88
02:06:40,2.5260,0.9567,5.3029,2.0193,71.25,70.50,486.0,2.42,4.86
02:07:00,2.5280,0.9546,5.3163,2.0246,71.43,70.69,486.0,2.41,4.86
02:07:20,2.5280,0.9555,5.3297,2.0299,71.61,70.87,488.0,2.42,4.88
02:07:40,2.5200,0.9507,5.3430,2.0351,71.79,71.06,486.0,2.4,4.86
02:08:00,2.5100,0.9025,5.3556,2.0402,71.96,71.23,482.0,2.27,4.82
02:08:20,2.5070,0.8978,5.3682,2.0452,72.13,71.41,483.0,2.25,4.83
02:08:40,2.5060,0.8966,5.3806,2.0501,72.30,71.58,481.0,2.25,4.81
02:09:00,2.5150,0.9357,5.3937,2.0554,72.47,71.76,479.0,2.35,4.79
02:09:20,2.5130,0.9346,5.4068,2.0605,72.65,71.94,477.0,2.35,4.77
02:09:40,2.5130,0.9317,5.4198,2.0657,72.82,72.13,475.0,2.34,4.75
02:10:00,2.5180,0.9309,5.4328,2.0709,73.00,72.31,474.0,2.34,4.74
02:10:20,2.5180,0.9291,5.4458,2.0761,73.17,72.49,472.0,2.34,4.72
02:10:40,2.5140,0.9252,5.4588,2.0812,73.35,72.67,470.0,2.33,4.7
02:11:00,2.5120,0.9220,5.4716,2.0863,73.52,72.85,467.0,2.32,4.67
02:11:20,2.5140,0.9187,5.4845,2.0914,73.69,73.02,467.0,2.31,4.67
02:11:40,2.5140,0.9174,5.4973,2.0965,73.86,73.20,465.0,2.31,4.65
02:12:00,2.5170,0.9114,5.5101,2.1016,74.04,73.38,465.0,2.29,4.65
02:12:20,2.5220,0.9155,5.5229,2.1067,74.21,73.56,464.0,2.31,4.64
02:12:40,2.5250,0.9174,5.5358,2.1118,74.38,73.73,467.0,2.32,4.67
02:13:00,2.5250,0.9178,5.5486,2.1169,74.55,73.91,466.0,2.32,4.66
02:13:20,2.5210,0.9202,5.5615,2.1220,74.73,74.09,469.0,2.32,4.69
02:13:40,2.5340,0.9236,5.5745,2.1271,74.90,74.27,470.0,2.34,4.7
02:14:00,2.5250,0.9256,5.5875,2.1323,75.08,74.45,471.0,2.34,4.71
02:14:20,2.5290,0.9275,5.6005,2.1374,75.25,74.63,470.0,2.35,4.7
02:14:40,2.5330,0.9287,5.6136,2.1426,75.43,74.81,473.0,2.35,4.73
02:15:00,2.5330,0.9294,5.6266,2.1477,75.60,74.99,472.0,2.35,4.72
02:15:20,2.5290,0.9313,5.6397,2.1529,75.78,75.17,472.0,2.36,4.72
02:15:40,2.5260,0.9310,5.6528,2.1581,75.95,75.35,474.0,2.35,4.74
02:16:00,2.5260,0.9305,5.6658,2.1633,76.13,75.53,474.0,2.35,4.74
02:16:20,2.5300,0.9258,5.6788,2.1684,76.30,75.71,473.0,2.34,4.73
02:16:40,2.5300,0.9253,5.6919,2.1735,76.48,75.89,472.0,2.34,4.72
02:17:00,2.5300,0.9246,5.7049,2.1787,76.65,76.07,470.0,2.34,4.7
02:17:20,2.5330,0.9241,5.7179,2.1838,76.83,76.25,472.0,2.34,4.72
02:17:40,2.5320,0.9222,5.7308,2.1889,77.00,76.43,470.0,2.34,4.7
02:18:00,2.5290,0.9200,5.7438,2.1941,77.18,76.61,468.0,2.33,4.68
02:18:20,2.5250,0.9175,5.7567,2.1992,77.35,76.78,467.0,2.32,4.67
02:18:40,2.5220,0.9141,5.7695,2.2042,77.52,76.96,465.0,2.31,4.65
02:19:00,2.5220,0.9149,5.7823,2.2093,77.69,77.14,464.0,2.31,4.64
02:19:20,2.5210,0.9131,5.7951,2.2144,77.87,77.32,464.0,2.3,4.64
02:19:40,2.5220,0.9129,5.8079,2.2195,78.04,77.49,463.0,2.3,4.63
02:20:00,2.5220,0.9149,5.8207,2.2245,78.21,77.67,462.0,2.31,4.62
02:20:20,2.5240,0.9137,5.8335,2.2296,78.38,77.85,464.0,2.31,4.64
02:20:40,2.5250,0.9131,5.8463,2.2347,78.55,78.03,463.0,2.31,4.63
02:21:00,2.5190,0.9135,5.8591,2.2398,78.73,78.20,463.0,2.3,4.63
02:21:20,2.5180,0.9170,5.8719,2.2449,78.90,78.38,465.0,2.31,4.65
02:21:40,2.5230,0.9172,5.8848,2.2500,79.07,78.56,464.0,2.31,4.64
02:22:00,2.5230,0.9142,5.8976,2.2550,79.24,78.74,463.0,2.31,4.63
02:22:20,2.5220,0.9102,5.9104,2.2601,79.42,78.91,460.0,2.3,4.6
02:22:40,2.5170,0.9074,5.9231,2.2652,79.59,79.09,459.0,2.28,4.59
02:23:00,2.5140,0.9023,5.9357,2.2702,79.76,79.26,456.0,2.27,4.56
02:23:20,2.5130,0.9018,5.9483,2.2752,79.92,79.44,455.0,2.27,4.55
02:23:40,2.5150,0.9015,5.9609,2.2802,80.09,79.61,452.0,2.27,4.52
02:24:00,2.5140,0.8972,5.9734,2.2852,80.26,79.79,450.0,2.26,4.5
02:24:20,2.5190,0.8936,5.9860,2.2902,80.43,79.96,450.0,2.25,4.5
02:24:40,2.5210,0.8872,5.9984,2.2951,80.60,80.13,446.0,2.24,4.46
02:25:00,2.5260,0.8852,6.0108,2.3000,80.76,80.31,446.0,2.24,4.46
02:25:20,2.5230,0.8801,6.0232,2.3049,80.93,80.48,444.0,2.22,4.44
02:25:40,2.5290,0.8813,6.0356,2.3098,81.10,80.65,442.0,2.23,4.42
02:26:00,2.5280,0.8758,6.0479,2.3147,81.26,80.82,439.0,2.21,4.39
02:26:20,2.5280,0.8733,6.0601,2.3195,81.43,80.99,438.0,2.21,4.38
02:26:40,2.5290,0.8706,6.0724,2.3244,81.59,81.16,437.0,2.2,4.37
02:27:00,2.5270,0.8679,6.0846,2.3292,81.76,81.32,435.0,2.19,4.35
02:27:20,2.5310,0.8659,6.0968,2.3340,81.92,81.49,433.0,2.19,4.33
02:27:40,2.5280,0.8631,6.1089,2.3388,82.08,81.66,431.0,2.18,4.31
02:28:00,2.5320,0.8647,6.1210,2.3436,82.25,81.83,433.0,2.19,4.33
02:28:20,2.5320,0.8658,6.1332,2.3484,82.41,82.00,434.0,2.19,4.34
02:28:40,2.5420,0.8685,6.1456,2.3533,82.58,82.17,435.0,2.21,4.35
02:29:00,2.5500,0.9004,6.1583,2.3583,82.75,82.34,435.0,2.3,4.35
02:29:20,2.5530,0.8978,6.1710,2.3632,82.92,82.51,434.0,2.29,4.34
02:29:40,2.5450,0.8943,6.1837,2.3682,83.09,82.69,431.0,2.28,4.31
02:30:00,2.5400,0.8915,6.1963,2.3732,83.26,82.86,431.0,2.26,4.31
02:30:20,2.5400,0.8898,6.2088,2.3781,83.43,83.03,429.0,2.26,4.29
02:30:40,2.5400,0.8898,6.2214,2.3831,83.59,83.21,430.0,2.26,4.3
02:31:00,2.5370,0.8890,6.2339,2.3880,83.76,83.38,429.0,2.26,4.29
02:31:20,2.5370,0.8831,6.2464,2.3929,83.93,83.55,425.0,2.24,4.25
02:31:40,2.5340,0.8810,6.2588,2.3978,84.10,83.72,424.0,2.23,4.24
02:32:00,2.5300,0.8769,6.2711,2.4027,84.26,83.89,422.0,2.22,4.22
02:32:20,2.5290,0.8740,6.2834,2.4076,84.43,84.06,420.0,2.21,4.2
02:32:40,2.5340,0.8755,6.2958,2.4124,84.59,84.23,420.0,2.22,4.2
02:33:00,2.5350,0.8763,6.3081,2.4173,84.76,84.40,423.0,2.22,4.23
02:33:20,2.5350,0.8751,6.3204,2.4222,84.92,84.57,421.0,2.22,4.21
02:33:40,2.5370,0.8670,6.3327,2.4270,85.09,84.74,418.0,2.2,4.18
02:34:00,2.5330,0.8595,6.3448,2.4318,85.25,84.91,416.0,2.18,4.16
02:34:20,2.5300,0.8560,6.3569,2.4365,85.41,85.07,413.0,2.17,4.13
02:34:40,2.5310,0.8493,6.3688,2.4413,85.57,85.24,408.0,2.15,4.08
02:35:00,2.5320,0.8377,6.3807,2.4459,85.73,85.40,405.0,2.12,4.05
02:35:20,2.5310,0.8314,6.3924,2.4506,85.89,85.56,401.0,2.1,4.01
02:35:40,2.5350,0.8415,6.4042,2.4552,86.05,85.72,404.0,2.13,4.04
02:36:00,2.5380,0.8494,6.4161,2.4599,86.21,85.89,408.0,2.16,4.08
02:36:20,2.5370,0.8500,6.4281,2.4646,86.37,86.05,408.0,2.16,4.08
02:36:40,2.5390,0.8475,6.4400,2.4694,86.53,86.22,407.0,2.15,4.07
02:37:00,2.5400,0.8451,6.4520,2.4741,86.69,86.38,406.0,2.15,4.06
02:37:20,2.5420,0.8400,6.4639,2.4787,86.85,86.55,404.0,2.14,4.04
02:37:40,2.5440,0.8395,6.4757,2.4834,87.01,86.71,402.0,2.14,4.02
02:38:00,2.5440,0.8286,6.4875,2.4880,87.17,86.87,401.0,2.11,4.01
02:38:20,2.5380,0.8016,6.4989,2.4925,87.32,87.03,392.0,2.03,3.92
02:38:40,2.4100,0.3398,6.5057,2.4953,87.41,87.12,170.5,0.82,1.705
02:39:00,2.4160,0.3351,6.5098,2.4970,87.47,87.18,137.5,0.81,1.375
02:39:20,2.4040,0.2740,6.5135,2.4985,87.52,87.24,108.3,0.66,1.083
02:39:40,2.4140,0.2807,6.5172,2.5000,87.57,87.29,114.8,0.68,1.148
02:40:00,2.5130,0.5860,6.5232,2.5025,87.65,87.37,232.0,1.47,2.32
02:40:20,2.5340,0.6658,6.5329,2.5063,87.78,87.51,325.0,1.69,3.25
02:40:40,2.4260,0.2885,6.5386,2.5086,87.86,87.59,144.0,0.7,1.44
02:41:00,2.4140,0.2400,6.5419,2.5100,87.90,87.64,108.4,0.58,1.084
02:41:20,2.4190,0.2333,6.5451,2.5113,87.94,87.68,98.5,0.56,0.985
02:41:40,2.4270,0.2312,6.5482,2.5126,87.99,87.73,93.6,0.56,0.936
02:42:00,2.4340,0.2315,6.5514,2.5138,88.03,87.77,94.5,0.56,0.945
02:42:20,2.4350,0.2292,6.5545,2.5151,88.07,87.82,93.5,0.56,0.935
02:42:40,2.4380,0.2301,6.5576,2.5164,88.11,87.86,93.2,0.56,0.932
02:43:00,2.4400,0.2285,6.5607,2.5177,88.15,87.91,92.8,0.56,0.928
02:43:20,2.4430,0.2262,6.5637,2.5189,88.19,87.95,92.4,0.55,0.924
02:43:40,2.4460,0.2258,6.5668,2.5202,88.23,87.99,92.6,0.55,0.926
02:44:00,2.4480,0.2253,6.5699,2.5214,88.28,88.04,92.8,0.55,0.928
02:44:20,2.4520,0.2246,6.5729,2.5227,88.32,88.08,92.3,0.55,0.923
02:44:40,2.4570,0.2245,6.5760,2.5239,88.36,88.12,93.2,0.55,0.932
02:45:00,2.4600,0.2247,6.5790,2.5252,88.40,88.17,92.8,0.55,0.928
02:45:20,2.4610,0.2249,6.5821,2.5264,88.44,88.21,93.2,0.55,0.932
02:45:40,2.4640,0.2246,6.5852,2.5277,88.48,88.25,92.7,0.55,0.927
02:46:00,2.4670,0.2273,6.5883,2.5289,88.52,88.30,93.7,0.56,0.937
02:46:20,2.4720,0.2292,6.5914,2.5302,88.57,88.34,94.5,0.57,0.945
02:46:40,2.4760,0.2308,6.5946,2.5315,88.61,88.39,95.3,0.57,0.953
02:47:00,2.4790,0.2335,6.5978,2.5328,88.65,88.43,96.8,0.58,0.968
02:47:20,2.4860,0.2487,6.6011,2.5341,88.70,88.48,99.6,0.62,0.996
02:47:40,2.5310,0.3835,6.6061,2.5361,88.76,88.55,158.9,0.97,1.589
02:48:00,2.5790,0.5476,6.6130,2.5388,88.86,88.64,225.0,1.41,2.25
02:48:20,2.5830,0.5731,6.6213,2.5420,88.97,88.75,267.0,1.48,2.67
02:48:40,2.4970,0.2899,6.6258,2.5438,89.03,88.82,132.9,0.72,1.329
02:49:00,2.4790,0.2361,6.6290,2.5451,89.07,88.86,97.6,0.59,0.976
02:49:20,2.4820,0.2444,6.6323,2.5464,89.12,88.91,100.2,0.61,1.002
02:49:40,2.4820,0.2406,6.6357,2.5477,89.16,88.96,100.2,0.6,1.002
02:50:00,2.5130,0.3164,6.6397,2.5493,89.21,89.01,128.7,0.8,1.287
02:50:20,2.5440,0.4201,6.6448,2.5514,89.28,89.08,154.2,1.07,1.542
02:50:40,2.6050,0.6497,6.6535,2.5547,89.40,89.20,292.0,1.69,2.92
02:51:00,2.6100,0.6875,6.6632,2.5585,89.53,89.33,319.0,1.79,3.19
02:51:20,2.6340,0.7949,6.6746,2.5628,89.68,89.48,376.0,2.09,3.76
02:51:40,2.6290,0.8015,6.6863,2.5672,89.84,89.64,374.0,2.11,3.74
02:52:00,2.6260,0.8167,6.6982,2.5718,90.00,89.79,387.0,2.14,3.87
02:52:20,2.6230,0.8163,6.7101,2.5763,90.16,89.95,386.0,2.14,3.86
02:52:40,2.6170,0.8142,6.7219,2.5808,90.32,90.11,385.0,2.13,3.85
02:53:00,2.6110,0.8091,6.7337,2.5853,90.48,90.27,383.0,2.11,3.83
02:53:20,2.6090,0.8071,6.7454,2.5898,90.63,90.42,383.0,2.11,3.83
02:53:40,2.6020,0.8047,6.7570,2.5943,90.79,90.58,382.0,2.09,3.82
02:54:00,2.6000,0.8022,6.7686,2.5987,90.95,90.74,381.0,2.09,3.81
02:54:20,2.5970,0.8010,6.7802,2.6032,91.10,90.89,379.0,2.08,3.79
02:54:40,2.5910,0.7976,6.7917,2.6076,91.26,91.05,378.0,2.07,3.78
02:55:00,2.5860,0.7951,6.8031,2.6120,91.41,91.20,378.0,2.06,3.78
02:55:20,2.5810,0.7919,6.8145,2.6164,91.56,91.35,377.0,2.04,3.77
02:55:40,2.5810,0.7929,6.8259,2.6208,91.72,91.51,377.0,2.05,3.77
02:56:00,2.5800,0.7944,6.8372,2.6253,91.87,91.66,377.0,2.05,3.77
02:56:20,2.5770,0.7916,6.8486,2.6297,92.02,91.82,378.0,2.04,3.78
02:56:40,2.5770,0.7912,6.8599,2.6341,92.17,91.97,378.0,2.04,3.78
02:57:00,2.5740,0.7934,6.8713,2.6385,92.33,92.12,380.0,2.04,3.8
02:57:20,2.5780,0.7950,6.8826,2.6429,92.48,92.28,381.0,2.05,3.81
02:57:40,2.5800,0.7942,6.8940,2.6473,92.63,92.43,380.0,2.05,3.8
02:58:00,2.5770,0.7958,6.9054,2.6517,92.78,92.59,381.0,2.05,3.81
02:58:20,2.5740,0.7982,6.9168,2.6561,92.94,92.74,382.0,2.05,3.82
02:58:40,2.5720,0.8014,6.9283,2.6606,93.09,92.90,384.0,2.06,3.84
02:59:00,2.5690,0.8040,6.9397,2.6650,93.25,93.05,385.0,2.07,3.85
02:59:20,2.5690,0.8076,6.9513,2.6695,93.40,93.21,387.0,2.07,3.87
02:59:40,2.5690,0.8090,6.9628,2.6740,93.56,93.36,388.0,2.08,3.88
03:00:00,2.5670,0.8105,6.9743,2.6785,93.71,93.52,387.0,2.08,3.87
03:00:20,2.5640,0.8095,6.9859,2.6830,93.87,93.68,390.0,2.08,3.9
03:00:40,2.5640,0.8080,6.9974,2.6875,94.02,93.84,391.0,2.07,3.91
03:01:00,2.5600,0.8093,7.0089,2.6920,94.18,93.99,390.0,2.07,3.9
03:01:20,2.5620,0.8087,7.0204,2.6965,94.33,94.15,390.0,2.07,3.9
03:01:40,2.5660,0.8075,7.0319,2.7010,94.48,94.31,391.0,2.07,3.91
03:02:00,2.5620,0.8011,7.0434,2.7055,94.64,94.46,389.0,2.05,3.89
03:02:20,2.5640,0.7938,7.0547,2.7099,94.79,94.62,383.0,2.04,3.83
03:02:40,2.5620,0.7833,7.0659,2.7142,94.94,94.77,380.0,2.01,3.8
03:03:00,2.5550,0.7766,7.0770,2.7186,95.09,94.92,376.0,1.98,3.76
03:03:20,2.5540,0.7700,7.0879,2.7229,95.24,95.07,372.0,1.97,3.72
03:03:40,2.5570,0.7620,7.0987,2.7271,95.38,95.22,367.0,1.95,3.67
03:04:00,2.5520,0.7561,7.1095,2.7313,95.53,95.36,365.0,1.93,3.65
03:04:20,2.5530,0.7519,7.1202,2.7355,95.67,95.51,362.0,1.92,3.62
03:04:40,2.5530,0.7418,7.1308,2.7396,95.81,95.66,357.0,1.89,3.57
03:05:00,2.5520,0.7332,7.1412,2.7437,95.95,95.80,352.0,1.87,3.52
03:05:20,2.5470,0.7043,7.1513,2.7477,96.09,95.94,346.0,1.79,3.46
03:05:40,2.4230,0.2575,7.1555,2.7494,96.15,96.00,117.6,0.62,1.176
03:06:00,2.4360,0.2536,7.1590,2.7508,96.19,96.05,114.9,0.62,1.149
03:06:20,2.4370,0.2510,7.1624,2.7522,96.24,96.10,112.7,0.61,1.127
03:06:40,2.4420,0.2489,7.1657,2.7536,96.28,96.14,113.1,0.61,1.131
03:07:00,2.4500,0.2472,7.1691,2.7550,96.33,96.19,111.7,0.61,1.117
03:07:20,2.4550,0.2439,7.1724,2.7563,96.37,96.24,111.4,0.6,1.114
03:07:40,2.4570,0.2400,7.1757,2.7577,96.42,96.29,109.4,0.59,1.094
03:08:00,2.4590,0.2343,7.1790,2.7590,96.46,96.33,106.2,0.58,1.062
03:08:20,2.4580,0.2281,7.1821,2.7603,96.50,96.38,103.7,0.56,1.037
03:08:40,2.4610,0.2208,7.1851,2.7615,96.54,96.42,99.2,0.54,0.992
03:09:00,2.4660,0.2132,7.1881,2.7627,96.58,96.46,95.3,0.53,0.953
03:09:20,2.4690,0.2090,7.1910,2.7639,96.62,96.50,92.4,0.52,0.924
03:09:40,2.4790,0.2455,7.1942,2.7652,96.67,96.55,107.0,0.61,1.07
03:10:00,2.4790,0.2271,7.1975,2.7665,96.71,96.59,107.8,0.56,1.078
03:10:20,2.4610,0.1919,7.2001,2.7676,96.74,96.63,84.6,0.47,0.846
03:10:40,2.4610,0.1876,7.2027,2.7686,96.78,96.67,81.2,0.46,0.812
03:11:00,2.4620,0.1836,7.2052,2.7697,96.81,96.70,78.3,0.45,0.783
03:11:20,2.4630,0.1803,7.2077,2.7707,96.85,96.74,76.6,0.44,0.766
03:11:40,2.4660,0.1766,7.2101,2.7716,96.88,96.77,75.0,0.44,0.75
03:12:00,2.4710,0.1736,7.2125,2.7726,96.91,96.81,73.1,0.43,0.731
03:12:20,2.4750,0.1726,7.2149,2.7736,96.94,96.84,72.4,0.43,0.724
03:12:40,2.4790,0.1726,7.2173,2.7745,96.98,96.87,72.0,0.43,0.72
03:13:00,2.4820,0.1722,7.2197,2.7755,97.01,96.91,72.4,0.43,0.724
03:13:20,2.4840,0.1722,7.2220,2.7764,97.04,96.94,72.1,0.43,0.721
03:13:40,2.4890,0.1725,7.2244,2.7774,97.07,96.97,72.5,0.43,0.725
03:14:00,2.4960,0.1840,7.2269,2.7784,97.10,97.01,74.8,0.46,0.748
03:14:20,2.5130,0.2193,7.2301,2.7797,97.15,97.05,103.0,0.55,1.03
03:14:40,2.4980,0.1739,7.2325,2.7806,97.18,97.09,72.7,0.43,0.727
03:15:00,2.5000,0.1700,7.2349,2.7816,97.21,97.12,71.6,0.43,0.716
03:15:20,2.5030,0.1678,7.2372,2.7825,97.24,97.15,70.8,0.42,0.708
03:15:40,2.5110,0.1845,7.2399,2.7836,97.28,97.19,96.5,0.46,0.965
03:16:00,2.4970,0.1601,7.2422,2.7845,97.31,97.22,67.6,0.4,0.676
03:16:20,2.4950,0.1512,7.2443,2.7853,97.34,97.25,63.8,0.38,0.638
03:16:40,2.4940,0.1450,7.2463,2.7862,97.37,97.28,60.5,0.36,0.605
03:17:00,2.4940,0.1408,7.2483,2.7869,97.39,97.31,58.2,0.35,0.582
03:17:20,2.4920,0.1326,7.2501,2.7877,97.42,97.33,56.4,0.33,0.564
03:17:40,2.4920,0.1297,7.2519,2.7884,97.44,97.36,55.3,0.32,0.553
03:18:00,2.4900,0.1255,7.2537,2.7891,97.46,97.38,53.7,0.31,0.537
03:18:20,2.4910,0.1213,7.2554,2.7898,97.49,97.41,51.5,0.3,0.515
03:18:40,2.4940,0.1174,7.2570,2.7904,97.51,97.43,48.7,0.29,0.487
03:19:00,2.4900,0.1137,7.2586,2.7911,97.53,97.45,46.8,0.28,0.468
03:19:20,2.4900,0.1100,7.2601,2.7917,97.55,97.47,44.9,0.27,0.449
03:19:40,2.4890,0.1066,7.2616,2.7923,97.57,97.49,43.5,0.27,0.435
03:20:00,2.4900,0.1036,7.2631,2.7929,97.59,97.51,41.8,0.26,0.418
03:20:20,2.4900,0.1010,7.2645,2.7934,97.61,97.53,40.5,0.25,0.405
03:20:40,2.4900,0.0977,7.2658,2.7940,97.63,97.55,39.3,0.24,0.393
03:21:00,2.4880,0.0948,7.2672,2.7945,97.65,97.57,37.4,0.24,0.374
03:21:20,2.4880,0.0925,7.2684,2.7950,97.66,97.59,35.8,0.23,0.358
03:21:40,2.4880,0.0900,7.2697,2.7955,97.68,97.61,34.4,0.22,0.344
03:22:00,2.4880,0.0878,7.2709,2.7960,97.70,97.62,33.7,0.22,0.337
03:22:20,2.4890,0.0859,7.2721,2.7965,97.71,97.64,32.5,0.21,0.325
03:22:40,2.4870,0.0834,7.2733,2.7970,97.73,97.66,31.6,0.21,0.316
03:23:00,2.4880,0.0813,7.2744,2.7974,97.74,97.67,30.4,0.2,0.304
03:23:20,2.4900,0.0802,7.2755,2.7979,97.76,97.69,29.8,0.2,0.298
03:23:40,2.4900,0.0788,7.2766,2.7983,97.77,97.70,29.2,0.2,0.292
03:24:00,2.4920,0.0784,7.2777,2.7988,97.79,97.72,29.1,0.2,0.291
03:24:20,2.4930,0.0783,7.2788,2.7992,97.80,97.73,29.2,0.2,0.292
03:24:40,2.4960,0.0784,7.2799,2.7996,97.82,97.75,28.8,0.2,0.288
03:25:00,2.4820,0.0784,7.2809,2.8001,97.83,97.77,29.2,0.19,0.292
03:25:20,2.4840,0.0781,7.2820,2.8005,97.85,97.78,29.1,0.19,0.291
03:25:40,2.4850,0.0784,7.2831,2.8009,97.86,97.80,29.3,0.19,0.293
03:26:00,2.4860,0.0797,7.2842,2.8014,97.87,97.81,29.1,0.2,0.291
03:26:20,2.4870,0.0807,7.2853,2.8018,97.89,97.83,30.5,0.2,0.305
03:26:40,2.4880,0.0804,7.2864,2.8023,97.90,97.84,29.7,0.2,0.297
03:27:00,2.4880,0.0800,7.2875,2.8027,97.92,97.86,29.3,0.2,0.293
03:27:20,2.4900,0.0800,7.2886,2.8032,97.93,97.87,29.7,0.2,0.297
03:27:40,2.4910,0.0804,7.2897,2.8036,97.95,97.89,30.2,0.2,0.302
03:28:00,2.4920,0.0814,7.2909,2.8041,97.96,97.90,30.9,0.2,0.309
03:28:20,2.4940,0.0822,7.2920,2.8045,97.98,97.92,30.7,0.21,0.307
03:28:40,2.4950,0.0824,7.2931,2.8050,97.99,97.94,30.8,0.21,0.308
03:29:00,2.4950,0.0820,7.2943,2.8054,98.01,97.95,30.5,0.2,0.305
03:29:20,2.4950,0.0818,7.2954,2.8059,98.03,97.97,30.5,0.2,0.305
03:29:40,2.4960,0.0824,7.2966,2.8063,98.04,97.98,31.6,0.21,0.316
03:30:00,2.4970,0.0835,7.2977,2.8068,98.06,98.00,31.6,0.21,0.316
03:30:20,2.4980,0.0848,7.2989,2.8073,98.07,98.02,32.4,0.21,0.324
03:30:40,2.5000,0.0860,7.3001,2.8077,98.09,98.03,33.3,0.21,0.333
03:31:00,2.5010,0.0878,7.3013,2.8082,98.10,98.05,34.3,0.22,0.343
03:31:20,2.5020,0.0891,7.3025,2.8087,98.12,98.07,34.6,0.22,0.346
03:31:40,2.5020,0.0893,7.3038,2.8092,98.14,98.08,34.6,0.22,0.346
03:32:00,2.5030,0.0895,7.3050,2.8097,98.15,98.10,34.9,0.22,0.349
03:32:20,2.5030,0.0893,7.3062,2.8102,98.17,98.12,33.8,0.22,0.338
03:32:40,2.5050,0.0889,7.3075,2.8107,98.19,98.14,34.0,0.22,0.34
03:33:00,2.5050,0.0884,7.3087,2.8112,98.20,98.15,33.7,0.22,0.337
03:33:20,2.5050,0.0883,7.3099,2.8117,98.22,98.17,33.6,0.22,0.336
03:33:40,2.5050,0.0880,7.3112,2.8122,98.24,98.19,33.3,0.22,0.333
03:34:00,2.5060,0.0872,7.3124,2.8127,98.25,98.21,32.9,0.22,0.329
03:34:20,2.5060,0.0865,7.3136,2.8131,98.27,98.22,32.7,0.22,0.327
03:34:40,2.5060,0.0867,7.3148,2.8136,98.29,98.24,32.6,0.22,0.326
03:35:00,2.5060,0.0868,7.3160,2.8141,98.30,98.26,32.9,0.22,0.329
03:35:20,2.5060,0.0874,7.3172,2.8146,98.32,98.27,32.5,0.22,0.325
03:35:40,2.5070,0.0876,7.3184,2.8151,98.33,98.29,32.5,0.22,0.325
03:36:00,2.5060,0.0878,7.3197,2.8156,98.35,98.31,32.7,0.22,0.327
03:36:20,2.5070,0.0878,7.3209,2.8161,98.37,98.32,33.1,0.22,0.331
03:36:40,2.5060,0.0876,7.3221,2.8165,98.38,98.34,32.8,0.22,0.328
03:37:00,2.5060,0.0875,7.3233,2.8170,98.40,98.36,32.7,0.22,0.327
03:37:20,2.5060,0.0877,7.3246,2.8175,98.42,98.37,32.5,0.22,0.325
03:37:40,2.5070,0.0875,7.3258,2.8180,98.43,98.39,32.4,0.22,0.324
03:38:00,2.5060,0.0872,7.3270,2.8185,98.45,98.41,32.7,0.22,0.327
03:38:20,2.5060,0.0867,7.3282,2.8190,98.47,98.43,33.0,0.22,0.33
03:38:40,2.5050,0.0861,7.3294,2.8194,98.48,98.44,32.7,0.22,0.327
03:39:00,2.5050,0.0856,7.3306,2.8199,98.50,98.46,32.2,0.21,0.322
03:39:20,2.5050,0.0851,7.3318,2.8204,98.51,98.48,31.7,0.21,0.317
03:39:40,2.5050,0.0849,7.3330,2.8209,98.53,98.49,31.6,0.21,0.316
03:40:00,2.5060,0.0849,7.3341,2.8213,98.55,98.51,32.1,0.21,0.321
03:40:20,2.5050,0.0850,7.3353,2.8218,98.56,98.52,32.1,0.21,0.321
03:40:40,2.5050,0.0849,7.3365,2.8223,98.58,98.54,31.8,0.21,0.318
03:41:00,2.5050,0.0846,7.3377,2.8228,98.59,98.56,32.3,0.21,0.323
03:41:20,2.5050,0.0841,7.3389,2.8232,98.61,98.57,32.0,0.21,0.32
03:41:40,2.5040,0.0833,7.3400,2.8237,98.62,98.59,31.5,0.21,0.315
03:42:00,2.5040,0.0827,7.3412,2.8241,98.64,98.61,30.9,0.21,0.309
03:42:20,2.5040,0.0822,7.3423,2.8246,98.66,98.62,30.3,0.21,0.303
03:42:40,2.5040,0.0816,7.3435,2.8251,98.67,98.64,29.4,0.2,0.294
03:43:00,2.5030,0.0813,7.3446,2.8255,98.69,98.65,29.3,0.2,0.293
03:43:20,2.5030,0.0810,7.3457,2.8260,98.70,98.67,29.3,0.2,0.293
03:43:40,2.5030,0.0808,7.3468,2.8264,98.72,98.69,29.0,0.2,0.29
03:44:00,2.5030,0.0808,7.3480,2.8269,98.73,98.70,29.4,0.2,0.294
03:44:20,2.5040,0.0806,7.3491,2.8273,98.75,98.72,29.1,0.2,0.291
03:44:40,2.5050,0.0808,7.3502,2.8278,98.76,98.73,29.0,0.2,0.29
03:45:00,2.5050,0.0810,7.3513,2.8282,98.78,98.75,28.9,0.2,0.289
03:45:20,2.5050,0.0809,7.3525,2.8287,98.79,98.76,29.3,0.2,0.293
03:45:40,2.5050,0.0808,7.3536,2.8291,98.81,98.78,28.6,0.2,0.286
03:46:00,2.5050,0.0807,7.3547,2.8296,98.82,98.79,28.6,0.2,0.286
03:46:20,2.5050,0.0814,7.3558,2.8300,98.84,98.81,29.3,0.2,0.293
03:46:40,2.5060,0.0824,7.3570,2.8305,98.85,98.83,30.0,0.21,0.3
03:47:00,2.5060,0.0838,7.3581,2.8309,98.87,98.84,30.4,0.21,0.304
03:47:20,2.5080,0.0860,7.3593,2.8314,98.88,98.86,31.2,0.22,0.312
03:47:40,2.5090,0.0880,7.3606,2.8319,98.90,98.88,31.8,0.22,0.318
03:48:00,2.5100,0.0893,7.3618,2.8324,98.92,98.89,32.3,0.22,0.323
03:48:20,2.5110,0.0912,7.3631,2.8329,98.93,98.91,33.1,0.23,0.331
03:48:40,2.5120,0.0927,7.3643,2.8334,98.95,98.93,33.9,0.23,0.339
03:49:00,2.5120,0.0939,7.3657,2.8339,98.97,98.95,34.4,0.24,0.344
03:49:20,2.5130,0.0956,7.3670,2.8344,98.99,98.97,34.6,0.24,0.346
03:49:40,2.5150,0.1009,7.3684,2.8350,99.01,98.98,36.6,0.25,0.366
03:50:00,2.5200,0.1110,7.3699,2.8356,99.03,99.01,40.8,0.28,0.408
03:50:20,2.5250,0.1239,7.3716,2.8363,99.05,99.03,44.7,0.31,0.447
03:50:40,2.5740,0.2589,7.3746,2.8375,99.09,99.07,96.3,0.67,0.963
03:51:00,2.5880,0.3182,7.3791,2.8392,99.15,99.13,138.2,0.82,1.382
03:51:20,2.5890,0.3354,7.3839,2.8410,99.21,99.20,147.5,0.87,1.475
03:51:40,2.5860,0.3346,7.3887,2.8429,99.28,99.26,147.8,0.87,1.478
03:52:00,2.5810,0.3291,7.3935,2.8447,99.34,99.33,145.9,0.85,1.459
03:52:20,2.5790,0.3305,7.3982,2.8466,99.41,99.39,145.1,0.85,1.451
03:52:40,2.5760,0.3317,7.4029,2.8484,99.47,99.45,145.5,0.85,1.455
03:53:00,2.5750,0.3335,7.4077,2.8503,99.53,99.52,146.5,0.86,1.465
03:53:20,2.5710,0.3297,7.4124,2.8521,99.60,99.58,145.1,0.85,1.451
03:53:40,2.5370,0.2230,7.4161,2.8535,99.65,99.63,106.3,0.57,1.063
03:54:00,2.4990,0.1215,7.4180,2.8543,99.67,99.66,48.3,0.3,0.483
03:54:20,2.5000,0.1226,7.4197,2.8550,99.69,99.68,46.1,0.31,0.461
03:54:40,2.5050,0.1287,7.4215,2.8557,99.72,99.71,49.2,0.32,0.492
03:55:00,2.5020,0.1204,7.4232,2.8564,99.74,99.73,45.7,0.3,0.457
03:55:20,2.4990,0.1130,7.4248,2.8570,99.76,99.75,42.5,0.28,0.425
03:55:40,2.4970,0.1073,7.4263,2.8576,99.78,99.77,38.9,0.27,0.389
03:56:00,2.4970,0.1059,7.4277,2.8582,99.80,99.80,38.6,0.26,0.386
03:56:20,2.4970,0.1036,7.4292,2.8588,99.82,99.82,37.6,0.26,0.376
03:56:40,2.4960,0.1024,7.4306,2.8593,99.84,99.84,37.3,0.26,0.373
03:57:00,2.4960,0.1015,7.4320,2.8599,99.86,99.86,37.2,0.25,0.372
03:57:20,2.4960,0.1004,7.4334,2.8605,99.88,99.87,36.9,0.25,0.369
03:57:40,2.4950,0.0996,7.4348,2.8610,99.90,99.89,35.8,0.25,0.358
03:58:00,2.4960,0.0992,7.4362,2.8616,99.92,99.91,35.8,0.25,0.358
03:58:20,2.4970,0.0994,7.4376,2.8621,99.94,99.93,36.1,0.25,0.361
03:58:40,2.4980,0.0997,7.4389,2.8627,99.95,99.95,35.9,0.25,0.359
03:59:00,2.4980,0.0997,7.4403,2.8632,99.97,99.97,36.3,0.25,0.363
03:59:20,2.4990,0.0993,7.4417,2.8638,99.99,99.99,35.9,0.25,0.359
03:59:40,2.4980,0.0976,7.4431,2.8643,100.01,100.01,35.6,0.24,0.356