File: output/5/rynotuff-1.csv
Time,Voltage(V),Current(A),Energy(Wh),Capacity(Ah),Energy Proportion(%),Capacity Proportion(%),Irradiance(W/m2),Power(W),Power Score,Watts/oz,cW/oz,Sun Score,Irradiance/100,Efficiency(%)
00:00:00,3.9020,1.0182,0.0110,0.0028,0.08,0.09,338.0,3.97,33.1,0.24,2.4,33.8,3.38,0.98
00:00:20,4.0060,1.1600,0.0337,0.0087,0.25,0.28,417.0,4.65,38.8,0.28,2.8,41.7,4.17,0.93
00:00:40,3.7670,1.0758,0.0562,0.0146,0.41,0.48,401.0,4.05,33.8,0.24,2.4,40.1,4.01,0.84
00:01:00,3.9410,1.1459,0.0805,0.0209,0.59,0.68,406.0,4.52,37.7,0.27,2.7,40.6,4.06,0.93
00:01:20,5.3410,0.0090,0.0931,0.0241,0.68,0.79,413.0,0.05,0.4,0.0,0.0,41.3,4.13,0.01
00:01:40,5.3410,0.0092,0.0933,0.0241,0.69,0.79,432.0,0.05,0.4,0.0,0.0,43.2,4.32,0.01
00:02:00,3.8530,1.2685,0.1204,0.0309,0.88,1.02,452.0,4.89,40.8,0.29,2.9,45.2,4.52,0.9
00:02:20,2.8850,1.5689,0.1331,0.0353,0.98,1.16,507.0,4.53,37.8,0.27,2.7,50.7,5.07,0.74
00:02:40,3.5860,1.8471,0.1662,0.0451,1.22,1.48,595.0,6.62,55.2,0.4,4.0,59.5,5.95,0.93
00:03:00,4.9760,1.9885,0.2107,0.0555,1.55,1.82,649.0,9.89,82.4,0.59,5.9,64.9,6.49,1.27
00:03:20,3.7560,1.9503,0.2586,0.0665,1.90,2.18,673.0,7.33,61.1,0.44,4.4,67.3,6.73,0.91
00:03:40,3.3960,1.7670,0.2925,0.0764,2.15,2.51,584.0,6.0,50.0,0.36,3.6,58.4,5.84,0.86
00:04:00,2.8880,1.5766,0.3213,0.0856,2.36,2.81,531.0,4.55,37.9,0.27,2.7,53.1,5.31,0.71
00:04:20,3.5780,1.8611,0.3561,0.0956,2.62,3.14,588.0,6.66,55.5,0.4,4.0,58.8,5.88,0.94
00:04:40,4.9710,2.0016,0.3838,0.1012,2.82,3.32,816.0,9.95,82.9,0.6,6.0,81.6,8.16,1.02
00:05:00,4.9700,2.0023,0.4390,0.1123,3.23,3.69,798.0,9.95,82.9,0.6,6.0,79.8,7.98,1.04
00:05:20,4.9700,2.0018,0.4943,0.1234,3.63,4.05,763.0,9.95,82.9,0.6,6.0,76.3,7.63,1.09
00:05:40,4.1010,2.0007,0.5447,0.1346,4.00,4.42,682.0,8.2,68.3,0.49,4.9,68.2,6.82,1.0
00:06:00,3.4670,1.8327,0.5821,0.1450,4.28,4.76,624.0,6.35,52.9,0.38,3.8,62.4,6.24,0.85
00:06:20,2.8580,1.3970,0.6069,0.1534,4.46,5.03,479.0,3.99,33.3,0.24,2.4,47.9,4.79,0.69
00:06:40,3.3960,1.1740,0.6179,0.1566,4.54,5.14,410.0,3.99,33.3,0.24,2.4,41.0,4.1,0.81
00:07:00,2.8550,1.3588,0.6289,0.1604,4.62,5.27,431.0,3.88,32.3,0.23,2.3,43.1,4.31,0.75
00:07:20,2.8740,1.5189,0.6523,0.1686,4.79,5.53,487.0,4.37,36.4,0.26,2.6,48.7,4.87,0.75
00:07:40,2.8680,1.4332,0.6754,0.1767,4.96,5.80,466.0,4.11,34.3,0.25,2.5,46.6,4.66,0.73
00:08:00,2.8280,1.2857,0.6969,0.1842,5.12,6.05,429.0,3.64,30.3,0.22,2.2,42.9,4.29,0.71
00:08:20,3.2670,0.0135,0.6972,0.1843,5.12,6.05,379.0,0.04,0.3,0.0,0.0,37.9,3.79,0.01
00:08:40,3.0050,0.7550,0.7106,0.1887,5.22,6.19,351.0,2.27,18.9,0.14,1.4,35.1,3.51,0.54
00:09:00,2.7630,0.7871,0.7230,0.1931,5.31,6.34,348.0,2.17,18.1,0.13,1.3,34.8,3.48,0.52
00:09:20,2.6710,0.7906,0.7347,0.1975,5.40,6.48,353.0,2.11,17.6,0.13,1.3,35.3,3.53,0.5
00:09:40,2.6060,0.7762,0.7461,0.2018,5.48,6.62,349.0,2.02,16.8,0.12,1.2,34.9,3.49,0.48
00:10:00,2.5830,0.7712,0.7572,0.2061,5.56,6.76,349.0,1.99,16.6,0.12,1.2,34.9,3.49,0.48
00:10:20,2.5840,0.7914,0.7684,0.2104,5.65,6.91,354.0,2.04,17.0,0.12,1.2,35.4,3.54,0.48
00:10:40,2.6520,0.8319,0.7802,0.2149,5.73,7.05,364.0,2.21,18.4,0.13,1.3,36.4,3.64,0.51
00:11:00,2.9590,0.9373,0.7946,0.2200,5.84,7.22,407.0,2.77,23.1,0.17,1.7,40.7,4.07,0.57
00:11:20,3.7000,1.0378,0.8147,0.2256,5.99,7.40,387.0,3.84,32.0,0.23,2.3,38.7,3.87,0.83
00:11:40,3.5030,0.8522,0.8331,0.2307,6.12,7.57,345.0,2.99,24.9,0.18,1.8,34.5,3.45,0.72
00:12:00,3.1390,0.7957,0.8475,0.2352,6.23,7.72,335.0,2.5,20.8,0.15,1.5,33.5,3.35,0.62
00:12:20,2.9120,0.7718,0.8603,0.2395,6.32,7.86,328.0,2.25,18.8,0.14,1.4,32.8,3.28,0.57
00:12:40,2.8050,0.7619,0.8724,0.2438,6.41,8.00,326.0,2.14,17.8,0.13,1.3,32.6,3.26,0.55
00:13:00,2.7660,0.7563,0.8840,0.2480,6.49,8.14,318.0,2.09,17.4,0.13,1.3,31.8,3.18,0.55
00:13:20,2.9270,0.7492,0.8960,0.2521,6.58,8.28,318.0,2.19,18.3,0.13,1.3,31.8,3.18,0.57
00:13:40,3.7080,0.8858,0.9121,0.2568,6.70,8.43,320.0,3.28,27.3,0.2,2.0,32.0,3.2,0.85
00:14:00,3.7330,0.8904,0.9306,0.2617,6.84,8.59,317.0,3.32,27.7,0.2,2.0,31.7,3.17,0.87
00:14:20,3.7390,0.8970,0.9491,0.2667,6.97,8.75,320.0,3.35,27.9,0.2,2.0,32.0,3.2,0.87
00:14:40,3.7400,0.8992,0.9677,0.2717,7.11,8.92,323.0,3.36,28.0,0.2,2.0,32.3,3.23,0.87
00:15:00,3.7300,0.9078,0.9866,0.2767,7.25,9.08,324.0,3.39,28.3,0.2,2.0,32.4,3.24,0.87
00:15:20,3.7390,0.8807,1.0050,0.2817,7.38,9.24,331.0,3.29,27.4,0.2,2.0,33.1,3.31,0.83
00:15:40,3.7680,0.8999,1.0236,0.2866,7.52,9.41,333.0,3.39,28.3,0.2,2.0,33.3,3.33,0.85
00:16:00,3.7370,0.9638,1.0434,0.2920,7.67,9.58,340.0,3.6,30.0,0.22,2.2,34.0,3.4,0.88
00:16:20,5.3370,0.0092,1.0535,0.2947,7.74,9.67,349.0,0.05,0.4,0.0,0.0,34.9,3.49,0.01
00:16:40,3.7190,1.0375,1.0746,0.3004,7.89,9.86,363.0,3.86,32.2,0.23,2.3,36.3,3.63,0.89
00:17:00,3.6160,1.8596,1.0934,0.3056,8.03,10.03,562.0,6.72,56.0,0.4,4.0,56.2,5.62,1.0
00:17:20,3.4120,1.7808,1.1349,0.3160,8.34,10.37,620.0,6.08,50.7,0.37,3.7,62.0,6.2,0.82
00:17:40,3.4970,0.9427,1.1557,0.3229,8.49,10.60,414.0,3.3,27.5,0.2,2.0,41.4,4.14,0.66
00:18:00,2.7480,1.4461,1.1752,0.3294,8.63,10.81,432.0,3.97,33.1,0.24,2.4,43.2,4.32,0.77
00:18:20,3.3530,0.9556,1.1842,0.3321,8.70,10.90,406.0,3.2,26.7,0.19,1.9,40.6,4.06,0.66
00:18:40,3.3170,1.0133,1.2015,0.3374,8.83,11.07,402.0,3.36,28.0,0.2,2.0,40.2,4.02,0.7
00:19:00,2.8490,1.5504,1.2248,0.3457,9.00,11.35,460.0,4.42,36.8,0.27,2.7,46.0,4.6,0.8
00:19:20,4.9710,1.9981,1.2795,0.3568,9.40,11.71,750.0,9.93,82.8,0.6,6.0,75.0,7.5,1.1
00:19:40,4.9700,1.9996,1.3347,0.3679,9.81,12.08,818.0,9.94,82.8,0.6,6.0,81.8,8.18,1.01
00:20:00,4.9680,1.9991,1.3899,0.3791,10.21,12.44,811.0,9.93,82.8,0.6,6.0,81.1,8.11,1.02
00:20:20,2.8150,1.3631,1.4127,0.3871,10.38,12.70,447.0,3.84,32.0,0.23,2.3,44.7,4.47,0.72
00:20:40,3.1050,0.8914,1.4285,0.3920,10.49,12.87,384.0,2.77,23.1,0.17,1.7,38.4,3.84,0.6
00:21:00,2.8660,0.8665,1.4431,0.3970,10.60,13.03,388.0,2.48,20.7,0.15,1.5,38.8,3.88,0.53
00:21:20,2.7460,0.8310,1.4561,0.4016,10.70,13.18,370.0,2.28,19.0,0.14,1.4,37.0,3.7,0.51
00:21:40,2.6790,0.8169,1.4683,0.4062,10.79,13.33,364.0,2.19,18.3,0.13,1.3,36.4,3.64,0.5
00:22:00,2.7000,0.8160,1.4805,0.4107,10.88,13.48,361.0,2.2,18.3,0.13,1.3,36.1,3.61,0.51
00:22:20,2.9060,0.8335,1.4936,0.4153,10.97,13.63,359.0,2.42,20.2,0.15,1.5,35.9,3.59,0.56
00:22:40,3.6790,1.0079,1.5122,0.4206,11.11,13.80,361.0,3.71,30.9,0.22,2.2,36.1,3.61,0.86
00:23:00,3.6860,1.0220,1.5331,0.4262,11.26,13.99,364.0,3.77,31.4,0.23,2.3,36.4,3.64,0.86
00:23:20,3.6630,0.9982,1.5538,0.4319,11.42,14.18,371.0,3.66,30.5,0.22,2.2,37.1,3.71,0.82
00:23:40,3.5690,0.9207,1.5726,0.4372,11.55,14.35,375.0,3.29,27.4,0.2,2.0,37.5,3.75,0.73
00:24:00,3.4800,0.9538,1.5910,0.4424,11.69,14.52,381.0,3.32,27.7,0.2,2.0,38.1,3.81,0.73
00:24:20,3.6780,1.1018,1.6122,0.4482,11.84,14.71,390.0,4.05,33.8,0.24,2.4,39.0,3.9,0.87
00:24:40,3.6810,1.1371,1.6353,0.4545,12.01,14.92,403.0,4.19,34.9,0.25,2.5,40.3,4.03,0.87
00:25:00,3.6820,1.1732,1.6592,0.4610,12.19,15.13,419.0,4.32,36.0,0.26,2.6,41.9,4.19,0.86
00:25:20,3.7890,1.9668,1.6950,0.4711,12.45,15.46,629.0,7.45,62.1,0.45,4.5,62.9,6.29,0.99
00:25:40,4.9700,1.9979,1.7502,0.4822,12.86,15.83,870.0,9.93,82.8,0.6,6.0,87.0,8.7,0.95
00:26:00,4.9670,1.9994,1.8054,0.4933,13.26,16.19,1053.0,9.93,82.8,0.6,6.0,105.3,10.53,0.79
00:26:20,4.9660,2.0009,1.8605,0.5044,13.67,16.56,993.0,9.94,82.8,0.6,6.0,99.3,9.93,0.83
00:26:40,4.9650,2.0005,1.9157,0.5156,14.07,16.92,1021.0,9.93,82.8,0.6,6.0,102.1,10.21,0.81
00:27:00,4.9640,2.0013,1.9709,0.5267,14.48,17.29,1045.0,9.93,82.8,0.6,6.0,104.5,10.45,0.79
00:27:20,4.9630,2.0005,2.0261,0.5378,14.88,17.65,1051.0,9.93,82.8,0.6,6.0,105.1,10.51,0.79
00:27:40,4.9620,2.0009,2.0812,0.5489,15.29,18.02,1039.0,9.93,82.8,0.6,6.0,103.9,10.39,0.8
00:28:00,4.9610,2.0003,2.1364,0.5600,15.69,18.38,1012.0,9.92,82.7,0.6,6.0,101.2,10.12,0.82
00:28:20,4.9600,2.0007,2.1915,0.5711,16.10,18.75,1024.0,9.92,82.7,0.6,6.0,102.4,10.24,0.81
00:28:40,4.9600,1.9998,2.2466,0.5822,16.50,19.11,1022.0,9.92,82.7,0.6,6.0,102.2,10.22,0.81
00:29:00,4.9590,2.0005,2.3017,0.5934,16.91,19.47,899.0,9.92,82.7,0.6,6.0,89.9,8.99,0.92
00:29:20,4.9590,1.9998,2.3568,0.6045,17.31,19.84,1009.0,9.92,82.7,0.6,6.0,100.9,10.09,0.82
00:29:40,4.9580,2.0003,2.4119,0.6156,17.72,20.20,1022.0,9.92,82.7,0.6,6.0,102.2,10.22,0.81
00:30:00,4.9590,2.0003,2.4670,0.6267,18.12,20.57,989.0,9.92,82.7,0.6,6.0,98.9,9.89,0.84
00:30:20,4.9600,2.0003,2.5221,0.6378,18.53,20.93,1036.0,9.92,82.7,0.6,6.0,103.6,10.36,0.8
00:30:40,4.9600,2.0001,2.5773,0.6489,18.93,21.30,1030.0,9.92,82.7,0.6,6.0,103.0,10.3,0.8
00:31:00,4.9600,2.0004,2.6324,0.6600,19.34,21.66,994.0,9.92,82.7,0.6,6.0,99.4,9.94,0.83
00:31:20,4.9590,2.0005,2.6875,0.6711,19.74,22.03,1022.0,9.92,82.7,0.6,6.0,102.2,10.22,0.81
00:31:40,4.9590,2.0002,2.7426,0.6822,20.15,22.39,1027.0,9.92,82.7,0.6,6.0,102.7,10.27,0.8
00:32:00,4.9580,1.9995,2.7977,0.6934,20.55,22.76,1008.0,9.91,82.6,0.6,6.0,100.8,10.08,0.82
00:32:20,4.9590,2.0006,2.8528,0.7045,20.96,23.12,887.0,9.92,82.7,0.6,6.0,88.7,8.87,0.93
00:32:40,4.1110,1.9997,2.8992,0.7156,21.30,23.49,705.0,8.22,68.5,0.49,4.9,70.5,7.05,0.97
00:33:00,0.2730,0.0000,2.9238,0.7211,21.48,23.67,772.0,0.0,0.0,0.0,0.0,77.2,7.72,0.0
00:33:20,4.9570,2.0004,2.9788,0.7322,21.88,24.03,1002.0,9.92,82.7,0.6,6.0,100.2,10.02,0.83
00:33:40,4.9570,2.0012,3.0340,0.7434,22.29,24.40,1000.0,9.92,82.7,0.6,6.0,100.0,10.0,0.83
00:34:00,4.9570,2.0003,3.0891,0.7545,22.69,24.76,952.0,9.92,82.7,0.6,6.0,95.2,9.52,0.87
00:34:20,4.8460,2.0004,3.1435,0.7656,23.09,25.13,838.0,9.69,80.8,0.58,5.8,83.8,8.38,0.96
00:34:40,3.5880,1.8677,3.1841,0.7763,23.39,25.48,626.0,6.7,55.8,0.4,4.0,62.6,6.26,0.89
00:35:00,4.9590,2.0000,3.2312,0.7872,23.74,25.84,726.0,9.92,82.7,0.6,6.0,72.6,7.26,1.14
00:35:20,4.9570,2.0022,3.2863,0.7983,24.14,26.20,1018.0,9.92,82.7,0.6,6.0,101.8,10.18,0.81
00:35:40,4.9570,2.0004,3.3414,0.8094,24.55,26.57,1022.0,9.92,82.7,0.6,6.0,102.2,10.22,0.81
00:36:00,4.8990,2.0013,3.3962,0.8206,24.95,26.93,792.0,9.8,81.7,0.59,5.9,79.2,7.92,1.03
00:36:20,2.8970,1.5859,3.4270,0.8301,25.18,27.25,501.0,4.59,38.3,0.28,2.8,50.1,5.01,0.76
00:36:40,3.5060,1.8272,3.4609,0.8400,25.43,27.57,583.0,6.41,53.4,0.39,3.9,58.3,5.83,0.92
00:37:00,3.0410,1.6161,3.4931,0.8497,25.66,27.89,520.0,4.91,40.9,0.3,3.0,52.0,5.2,0.79
00:37:20,4.4290,1.9995,3.5442,0.8608,26.04,28.25,717.0,8.86,73.8,0.53,5.3,71.7,7.17,1.03
00:37:40,3.3850,1.7786,3.5885,0.8713,26.36,28.60,711.0,6.02,50.2,0.36,3.6,71.1,7.11,0.71
00:38:00,3.2560,0.0076,3.5891,0.8714,26.37,28.60,405.0,0.02,0.2,0.0,0.0,40.5,4.05,0.0
00:38:20,2.9490,0.7453,3.6020,0.8757,26.46,28.74,343.0,2.2,18.3,0.13,1.3,34.3,3.43,0.53
00:38:40,2.7360,0.7621,3.6138,0.8800,26.55,28.88,338.0,2.09,17.4,0.13,1.3,33.8,3.38,0.52
00:39:00,2.6400,0.7562,3.6251,0.8842,26.63,29.02,334.0,2.0,16.7,0.12,1.2,33.4,3.34,0.5
00:39:20,2.7560,0.9071,3.6387,0.8892,26.73,29.18,437.0,2.5,20.8,0.15,1.5,43.7,4.37,0.48
00:39:40,2.5530,0.7312,3.6493,0.8933,26.81,29.32,326.0,1.87,15.6,0.11,1.1,32.6,3.26,0.48
00:40:00,2.5720,0.7412,3.6598,0.8974,26.89,29.45,324.0,1.91,15.9,0.11,1.1,32.4,3.24,0.49
00:40:20,2.7360,0.7702,3.6711,0.9016,26.97,29.59,327.0,2.11,17.6,0.13,1.3,32.7,3.27,0.54
00:40:40,2.7710,1.3299,3.6929,0.9083,27.13,29.81,451.0,3.69,30.8,0.22,2.2,45.1,4.51,0.68
00:41:00,2.7960,1.5123,3.7048,0.9125,27.22,29.95,455.0,4.23,35.3,0.25,2.5,45.5,4.55,0.77
00:41:20,5.3340,0.0092,3.7263,0.9181,27.38,30.13,786.0,0.05,0.4,0.0,0.0,78.6,7.86,0.01
00:41:40,4.9650,1.9995,3.7815,0.9292,27.78,30.50,933.0,9.93,82.8,0.6,6.0,93.3,9.33,0.89
00:42:00,4.9630,2.0001,3.8366,0.9403,28.19,30.86,944.0,9.93,82.8,0.6,6.0,94.4,9.44,0.88
00:42:20,4.9620,1.9994,3.8918,0.9514,28.59,31.23,940.0,9.92,82.7,0.6,6.0,94.0,9.4,0.88
00:42:40,4.9650,2.0007,3.9469,0.9625,29.00,31.59,692.0,9.93,82.8,0.6,6.0,69.2,6.92,1.2
00:43:00,3.2640,1.7130,3.9901,0.9728,29.31,31.93,586.0,5.59,46.6,0.34,3.4,58.6,5.86,0.79
00:43:20,4.9660,1.9997,4.0343,0.9833,29.64,32.27,629.0,9.93,82.8,0.6,6.0,62.9,6.29,1.32
00:43:40,4.9640,2.0002,4.0894,0.9944,30.04,32.64,846.0,9.93,82.8,0.6,6.0,84.6,8.46,0.98
00:44:00,3.2480,1.7239,4.1326,1.0047,30.36,32.98,714.0,5.6,46.7,0.34,3.4,71.4,7.14,0.65
00:44:20,2.9800,0.7526,4.1470,1.0093,30.47,33.13,333.0,2.24,18.7,0.13,1.3,33.3,3.33,0.56
00:44:40,2.7920,0.7466,4.1587,1.0134,30.55,33.26,298.0,2.08,17.3,0.13,1.3,29.8,2.98,0.58
00:45:00,2.8950,1.5847,4.1792,1.0204,30.70,33.49,465.0,4.59,38.3,0.28,2.8,46.5,4.65,0.82
00:45:20,3.8280,1.9964,4.2175,1.0309,30.98,33.84,649.0,7.64,63.7,0.46,4.6,64.9,6.49,0.98
00:45:40,5.3340,0.0082,4.2292,1.0350,31.07,33.97,388.0,0.04,0.3,0.0,0.0,38.8,3.88,0.01
00:46:00,3.3710,1.7660,4.2587,1.0444,31.29,34.28,555.0,5.95,49.6,0.36,3.6,55.5,5.55,0.89
00:46:20,4.9650,2.0012,4.3046,1.0551,31.62,34.63,660.0,9.94,82.8,0.6,6.0,66.0,6.6,1.26
00:46:40,4.9660,2.0007,4.3598,1.0662,32.03,34.99,712.0,9.94,82.8,0.6,6.0,71.2,7.12,1.16
00:47:00,4.9640,2.0011,4.4150,1.0773,32.44,35.36,874.0,9.93,82.8,0.6,6.0,87.4,8.74,0.95
00:47:20,4.9620,2.0008,4.4702,1.0884,32.84,35.72,874.0,9.93,82.8,0.6,6.0,87.4,8.74,0.95
00:47:40,4.9610,2.0012,4.5253,1.0995,33.25,36.09,868.0,9.93,82.8,0.6,6.0,86.8,8.68,0.95
00:48:00,4.9620,2.0006,4.5805,1.1107,33.65,36.45,861.0,9.93,82.8,0.6,6.0,86.1,8.61,0.96
00:48:20,4.9620,2.0019,4.6356,1.1218,34.06,36.82,832.0,9.93,82.8,0.6,6.0,83.2,8.32,0.99
00:48:40,4.7160,2.0005,4.6891,1.1329,34.45,37.18,683.0,9.43,78.6,0.57,5.7,68.3,6.83,1.15
00:49:00,4.9610,2.0005,4.7442,1.1440,34.85,37.55,817.0,9.92,82.7,0.6,6.0,81.7,8.17,1.01
00:49:20,4.9610,2.0016,4.7994,1.1551,35.26,37.91,852.0,9.93,82.8,0.6,6.0,85.2,8.52,0.97
00:49:40,4.9610,2.0014,4.8545,1.1662,35.66,38.28,744.0,9.93,82.8,0.6,6.0,74.4,7.44,1.11
00:50:00,4.9600,2.0011,4.9097,1.1774,36.07,38.64,845.0,9.93,82.8,0.6,6.0,84.5,8.45,0.98
00:50:20,4.9600,2.0005,4.9648,1.1885,36.47,39.01,780.0,9.92,82.7,0.6,6.0,78.0,7.8,1.06
00:50:40,4.9600,2.0007,5.0199,1.1996,36.88,39.37,818.0,9.92,82.7,0.6,6.0,81.8,8.18,1.01
00:51:00,4.9610,2.0009,5.0751,1.2107,37.28,39.74,837.0,9.93,82.8,0.6,6.0,83.7,8.37,0.99
00:51:20,4.9610,2.0014,5.1302,1.2218,37.69,40.10,819.0,9.93,82.8,0.6,6.0,81.9,8.19,1.01
00:51:40,4.9610,2.0001,5.1854,1.2329,38.09,40.47,818.0,9.92,82.7,0.6,6.0,81.8,8.18,1.01
00:52:00,4.9610,2.0004,5.2405,1.2441,38.50,40.83,836.0,9.92,82.7,0.6,6.0,83.6,8.36,0.99
00:52:20,4.9610,2.0012,5.2957,1.2552,38.91,41.20,828.0,9.93,82.8,0.6,6.0,82.8,8.28,1.0
00:52:40,4.9610,2.0005,5.3508,1.2663,39.31,41.56,827.0,9.92,82.7,0.6,6.0,82.7,8.27,1.0
00:53:00,4.9610,2.0010,5.4060,1.2774,39.72,41.93,848.0,9.93,82.8,0.6,6.0,84.8,8.48,0.98
00:53:20,4.9600,2.0008,5.4611,1.2885,40.12,42.29,837.0,9.92,82.7,0.6,6.0,83.7,8.37,0.99
00:53:40,4.9600,2.0009,5.5163,1.2996,40.53,42.66,843.0,9.92,82.7,0.6,6.0,84.3,8.43,0.98
00:54:00,4.9600,2.0006,5.5714,1.3108,40.93,43.02,851.0,9.92,82.7,0.6,6.0,85.1,8.51,0.97
00:54:20,4.9600,2.0004,5.6265,1.3219,41.34,43.39,867.0,9.92,82.7,0.6,6.0,86.7,8.67,0.95
00:54:40,4.9590,2.0004,5.6816,1.3330,41.74,43.75,845.0,9.92,82.7,0.6,6.0,84.5,8.45,0.98
00:55:00,4.9580,1.9996,5.7367,1.3441,42.15,44.12,887.0,9.91,82.6,0.6,6.0,88.7,8.87,0.93
00:55:20,4.9590,2.0011,5.7918,1.3552,42.55,44.48,874.0,9.92,82.7,0.6,6.0,87.4,8.74,0.95
00:55:40,4.9590,2.0007,5.8469,1.3663,42.96,44.85,865.0,9.92,82.7,0.6,6.0,86.5,8.65,0.96
00:56:00,4.9590,1.9999,5.9020,1.3774,43.36,45.21,852.0,9.92,82.7,0.6,6.0,85.2,8.52,0.97
00:56:20,4.9590,1.9996,5.9571,1.3885,43.76,45.57,828.0,9.92,82.7,0.6,6.0,82.8,8.28,1.0
00:56:40,3.2560,1.7100,5.9929,1.3987,44.03,45.91,590.0,5.57,46.4,0.33,3.3,59.0,5.9,0.79
00:57:00,4.8990,2.0005,6.0402,1.4097,44.37,46.27,723.0,9.8,81.7,0.59,5.9,72.3,7.23,1.13
00:57:20,3.4310,1.7943,6.0828,1.4202,44.69,46.61,618.0,6.16,51.3,0.37,3.7,61.8,6.18,0.83
00:57:40,2.9800,1.6264,6.1085,1.4290,44.88,46.90,487.0,4.85,40.4,0.29,2.9,48.7,4.87,0.83
00:58:00,2.7870,1.4781,6.1331,1.4375,45.06,47.18,462.0,4.12,34.3,0.25,2.5,46.2,4.62,0.74
00:58:20,2.8430,1.5581,6.1580,1.4462,45.24,47.47,493.0,4.43,36.9,0.27,2.7,49.3,4.93,0.75
00:58:40,3.6690,1.9025,6.1929,1.4562,45.50,47.80,592.0,6.98,58.2,0.42,4.2,59.2,5.92,0.98
00:59:00,0.3030,0.0000,6.2172,1.4618,45.68,47.98,740.0,0.0,0.0,0.0,0.0,74.0,7.4,0.0
00:59:20,4.9610,1.9994,6.2723,1.4729,46.08,48.34,826.0,9.92,82.7,0.6,6.0,82.6,8.26,1.0
00:59:40,4.9610,2.0005,6.3274,1.4840,46.49,48.71,818.0,9.92,82.7,0.6,6.0,81.8,8.18,1.01
01:00:00,4.9610,2.0001,6.3825,1.4951,46.89,49.07,812.0,9.92,82.7,0.6,6.0,81.2,8.12,1.02
01:00:20,4.9610,2.0000,6.4377,1.5062,47.29,49.44,810.0,9.92,82.7,0.6,6.0,81.0,8.1,1.02
01:00:40,4.9600,1.9997,6.4928,1.5174,47.70,49.80,807.0,9.92,82.7,0.6,6.0,80.7,8.07,1.02
01:01:00,4.9600,1.9998,6.5479,1.5285,48.10,50.17,811.0,9.92,82.7,0.6,6.0,81.1,8.11,1.02
01:01:20,4.9590,1.9996,6.6030,1.5396,48.51,50.53,807.0,9.92,82.7,0.6,6.0,80.7,8.07,1.02
01:01:40,4.9590,1.9993,6.6581,1.5507,48.91,50.90,809.0,9.91,82.6,0.6,6.0,80.9,8.09,1.02
01:02:00,4.9590,1.9994,6.7132,1.5618,49.32,51.26,808.0,9.92,82.7,0.6,6.0,80.8,8.08,1.02
01:02:20,4.9590,1.9997,6.7682,1.5729,49.72,51.63,806.0,9.92,82.7,0.6,6.0,80.6,8.06,1.03
01:02:40,4.9590,2.0005,6.8233,1.5840,50.13,51.99,807.0,9.92,82.7,0.6,6.0,80.7,8.07,1.02
01:03:00,4.9600,1.9992,6.8784,1.5951,50.53,52.35,802.0,9.92,82.7,0.6,6.0,80.2,8.02,1.03
01:03:20,4.9600,1.9993,6.9335,1.6062,50.94,52.72,807.0,9.92,82.7,0.6,6.0,80.7,8.07,1.02
01:03:40,4.9600,2.0001,6.9886,1.6173,51.34,53.08,809.0,9.92,82.7,0.6,6.0,80.9,8.09,1.02
01:04:00,4.9610,1.9995,7.0437,1.6284,51.75,53.45,807.0,9.92,82.7,0.6,6.0,80.7,8.07,1.02
01:04:20,4.9600,1.9999,7.0988,1.6395,52.15,53.81,810.0,9.92,82.7,0.6,6.0,81.0,8.1,1.02
01:04:40,4.9610,1.9995,7.1539,1.6507,52.56,54.18,813.0,9.92,82.7,0.6,6.0,81.3,8.13,1.02
01:05:00,4.9610,1.9989,7.2090,1.6618,52.96,54.54,815.0,9.92,82.7,0.6,6.0,81.5,8.15,1.01
01:05:20,4.9600,1.9997,7.2641,1.6729,53.37,54.91,817.0,9.92,82.7,0.6,6.0,81.7,8.17,1.01
01:05:40,4.9600,1.9997,7.3192,1.6840,53.77,55.27,817.0,9.92,82.7,0.6,6.0,81.7,8.17,1.01
01:06:00,4.9600,1.9989,7.3743,1.6951,54.18,55.64,818.0,9.91,82.6,0.6,6.0,81.8,8.18,1.01
01:06:20,4.9590,1.9993,7.4294,1.7062,54.58,56.00,816.0,9.91,82.6,0.6,6.0,81.6,8.16,1.01
01:06:40,4.9590,1.9991,7.4845,1.7173,54.99,56.36,815.0,9.91,82.6,0.6,6.0,81.5,8.15,1.01
01:07:00,4.9600,1.9991,7.5396,1.7284,55.39,56.73,813.0,9.92,82.7,0.6,6.0,81.3,8.13,1.02
01:07:20,4.9600,2.0002,7.5947,1.7395,55.80,57.09,812.0,9.92,82.7,0.6,6.0,81.2,8.12,1.02
01:07:40,4.9600,2.0005,7.6498,1.7506,56.20,57.46,811.0,9.92,82.7,0.6,6.0,81.1,8.11,1.02
01:08:00,4.9600,2.0004,7.7049,1.7618,56.61,57.82,802.0,9.92,82.7,0.6,6.0,80.2,8.02,1.03
01:08:20,4.9590,2.0002,7.7601,1.7729,57.01,58.19,812.0,9.92,82.7,0.6,6.0,81.2,8.12,1.02
01:08:40,4.9580,2.0003,7.8152,1.7840,57.41,58.55,814.0,9.92,82.7,0.6,6.0,81.4,8.14,1.02
01:09:00,4.9580,2.0003,7.8703,1.7951,57.82,58.92,807.0,9.92,82.7,0.6,6.0,80.7,8.07,1.02
01:09:20,4.9580,2.0001,7.9254,1.8062,58.22,59.28,811.0,9.92,82.7,0.6,6.0,81.1,8.11,1.02
01:09:40,4.9580,2.0003,7.9804,1.8173,58.63,59.65,812.0,9.92,82.7,0.6,6.0,81.2,8.12,1.02
01:10:00,4.9580,2.0005,8.0356,1.8284,59.03,60.01,814.0,9.92,82.7,0.6,6.0,81.4,8.14,1.02
01:10:20,4.9590,2.0003,8.0907,1.8395,59.44,60.38,817.0,9.92,82.7,0.6,6.0,81.7,8.17,1.01
01:10:40,4.9590,2.0003,8.1458,1.8507,59.84,60.74,811.0,9.92,82.7,0.6,6.0,81.1,8.11,1.02
01:11:00,4.9590,2.0011,8.2009,1.8618,60.25,61.11,813.0,9.92,82.7,0.6,6.0,81.3,8.13,1.02
01:11:20,4.9590,2.0008,8.2560,1.8729,60.65,61.47,811.0,9.92,82.7,0.6,6.0,81.1,8.11,1.02
01:11:40,4.9600,2.0002,8.3111,1.8840,61.06,61.84,804.0,9.92,82.7,0.6,6.0,80.4,8.04,1.03
01:12:00,4.9600,2.0001,8.3663,1.8951,61.46,62.20,800.0,9.92,82.7,0.6,6.0,80.0,8.0,1.03
01:12:20,4.9600,2.0000,8.4214,1.9062,61.87,62.57,806.0,9.92,82.7,0.6,6.0,80.6,8.06,1.03
01:12:40,4.9600,2.0005,8.4765,1.9173,62.27,62.93,810.0,9.92,82.7,0.6,6.0,81.0,8.1,1.02
01:13:00,4.9590,2.0002,8.5316,1.9284,62.68,63.30,814.0,9.92,82.7,0.6,6.0,81.4,8.14,1.02
01:13:20,4.9590,1.9999,8.5867,1.9396,63.08,63.66,813.0,9.92,82.7,0.6,6.0,81.3,8.13,1.02
01:13:40,4.9580,1.9997,8.6418,1.9507,63.49,64.02,812.0,9.91,82.6,0.6,6.0,81.2,8.12,1.02
01:14:00,4.9590,2.0004,8.6969,1.9618,63.89,64.39,815.0,9.92,82.7,0.6,6.0,81.5,8.15,1.01
01:14:20,4.9600,1.9998,8.7520,1.9729,64.30,64.75,817.0,9.92,82.7,0.6,6.0,81.7,8.17,1.01
01:14:40,4.9600,2.0000,8.8071,1.9840,64.70,65.12,812.0,9.92,82.7,0.6,6.0,81.2,8.12,1.02
01:15:00,4.9600,2.0006,8.8622,1.9951,65.11,65.48,820.0,9.92,82.7,0.6,6.0,82.0,8.2,1.01
01:15:20,4.9600,1.9995,8.9173,2.0062,65.51,65.85,821.0,9.92,82.7,0.6,6.0,82.1,8.21,1.01
01:15:40,4.9610,2.0005,8.9725,2.0173,65.92,66.21,820.0,9.92,82.7,0.6,6.0,82.0,8.2,1.01
01:16:00,4.9610,2.0004,9.0276,2.0284,66.32,66.58,818.0,9.92,82.7,0.6,6.0,81.8,8.18,1.01
01:16:20,4.9600,1.9996,9.0827,2.0396,66.73,66.94,815.0,9.92,82.7,0.6,6.0,81.5,8.15,1.01
01:16:40,4.9600,1.9996,9.1378,2.0507,67.13,67.31,815.0,9.92,82.7,0.6,6.0,81.5,8.15,1.01
01:17:00,4.9590,1.9999,9.1929,2.0618,67.54,67.67,811.0,9.92,82.7,0.6,6.0,81.1,8.11,1.02
01:17:20,4.9570,1.9998,9.2480,2.0729,67.94,68.04,814.0,9.91,82.6,0.6,6.0,81.4,8.14,1.01
01:17:40,4.9580,1.9993,9.3030,2.0840,68.35,68.40,812.0,9.91,82.6,0.6,6.0,81.2,8.12,1.02
01:18:00,4.9580,1.9997,9.3581,2.0951,68.75,68.77,815.0,9.91,82.6,0.6,6.0,81.5,8.15,1.01
01:18:20,4.9590,1.9995,9.4132,2.1062,69.15,69.13,817.0,9.92,82.7,0.6,6.0,81.7,8.17,1.01
01:18:40,4.9590,2.0007,9.4683,2.1173,69.56,69.49,814.0,9.92,82.7,0.6,6.0,81.4,8.14,1.02
01:19:00,4.9590,1.9998,9.5234,2.1284,69.96,69.86,815.0,9.92,82.7,0.6,6.0,81.5,8.15,1.01
01:19:20,4.9590,1.9998,9.5785,2.1395,70.37,70.22,815.0,9.92,82.7,0.6,6.0,81.5,8.15,1.01
01:19:40,4.9580,2.0003,9.6336,2.1507,70.77,70.59,813.0,9.92,82.7,0.6,6.0,81.3,8.13,1.02
01:20:00,4.9590,1.9995,9.6887,2.1618,71.18,70.95,815.0,9.92,82.7,0.6,6.0,81.5,8.15,1.01
01:20:20,4.9590,2.0001,9.7438,2.1729,71.58,71.32,817.0,9.92,82.7,0.6,6.0,81.7,8.17,1.01
01:20:40,4.9590,1.9991,9.7988,2.1840,71.99,71.68,819.0,9.91,82.6,0.6,6.0,81.9,8.19,1.01
01:21:00,4.9570,1.9994,9.8539,2.1951,72.39,72.05,819.0,9.91,82.6,0.6,6.0,81.9,8.19,1.01
01:21:20,4.9570,1.9991,9.9089,2.2062,72.80,72.41,819.0,9.91,82.6,0.6,6.0,81.9,8.19,1.01
01:21:40,4.9570,2.0000,9.9640,2.2173,73.20,72.78,823.0,9.91,82.6,0.6,6.0,82.3,8.23,1.0
01:22:00,4.9580,1.9994,10.0191,2.2284,73.61,73.14,815.0,9.91,82.6,0.6,6.0,81.5,8.15,1.01
01:22:20,4.9590,1.9994,10.0741,2.2395,74.01,73.50,819.0,9.92,82.7,0.6,6.0,81.9,8.19,1.01
01:22:40,4.9590,1.9995,10.1292,2.2506,74.42,73.87,822.0,9.92,82.7,0.6,6.0,82.2,8.22,1.01
01:23:00,4.9600,1.9996,10.1843,2.2617,74.82,74.23,822.0,9.92,82.7,0.6,6.0,82.2,8.22,1.01
01:23:20,4.9600,1.9997,10.2394,2.2728,75.22,74.60,824.0,9.92,82.7,0.6,6.0,82.4,8.24,1.0
01:23:40,4.9600,1.9994,10.2945,2.2839,75.63,74.96,820.0,9.92,82.7,0.6,6.0,82.0,8.2,1.01
01:24:00,4.9590,1.9996,10.3496,2.2951,76.03,75.33,822.0,9.92,82.7,0.6,6.0,82.2,8.22,1.01
01:24:20,4.9590,1.9990,10.4047,2.3062,76.44,75.69,824.0,9.91,82.6,0.6,6.0,82.4,8.24,1.0
01:24:40,4.9600,1.9986,10.4598,2.3173,76.84,76.06,824.0,9.91,82.6,0.6,6.0,82.4,8.24,1.0
01:25:00,4.9590,1.9994,10.5148,2.3284,77.25,76.42,825.0,9.92,82.7,0.6,6.0,82.5,8.25,1.0
01:25:20,4.9590,1.9987,10.5699,2.3395,77.65,76.79,827.0,9.91,82.6,0.6,6.0,82.7,8.27,1.0
01:25:40,4.9590,1.9995,10.6250,2.3506,78.06,77.15,827.0,9.92,82.7,0.6,6.0,82.7,8.27,1.0
01:26:00,4.9580,1.9997,10.6801,2.3617,78.46,77.52,830.0,9.91,82.6,0.6,6.0,83.0,8.3,0.99
01:26:20,4.9570,1.9993,10.7351,2.3728,78.87,77.88,824.0,9.91,82.6,0.6,6.0,82.4,8.24,1.0
01:26:40,4.9580,1.9997,10.7902,2.3839,79.27,78.24,826.0,9.91,82.6,0.6,6.0,82.6,8.26,1.0
01:27:00,4.9580,1.9991,10.8453,2.3950,79.68,78.61,829.0,9.91,82.6,0.6,6.0,82.9,8.29,1.0
01:27:20,4.9580,2.0000,10.9004,2.4061,80.08,78.97,832.0,9.92,82.7,0.6,6.0,83.2,8.32,0.99
01:27:40,4.9580,1.9992,10.9554,2.4172,80.49,79.34,832.0,9.91,82.6,0.6,6.0,83.2,8.32,0.99
01:28:00,4.9590,1.9993,11.0105,2.4283,80.89,79.70,834.0,9.91,82.6,0.6,6.0,83.4,8.34,0.99
01:28:20,4.9580,1.9998,11.0656,2.4395,81.29,80.07,837.0,9.92,82.7,0.6,6.0,83.7,8.37,0.99
01:28:40,4.9570,1.9997,11.1207,2.4506,81.70,80.43,837.0,9.91,82.6,0.6,6.0,83.7,8.37,0.99
01:29:00,4.9570,1.9986,11.1757,2.4617,82.10,80.80,840.0,9.91,82.6,0.6,6.0,84.0,8.4,0.98
01:29:20,4.9560,1.9999,11.2308,2.4728,82.51,81.16,828.0,9.91,82.6,0.6,6.0,82.8,8.28,1.0
01:29:40,4.9570,1.9996,11.2858,2.4839,82.91,81.53,836.0,9.91,82.6,0.6,6.0,83.6,8.36,0.99
01:30:00,4.9570,1.9984,11.3409,2.4950,83.32,81.89,824.0,9.91,82.6,0.6,6.0,82.4,8.24,1.0
01:30:20,4.9560,1.9996,11.3960,2.5061,83.72,82.25,819.0,9.91,82.6,0.6,6.0,81.9,8.19,1.01
01:30:40,4.9560,1.9995,11.4510,2.5172,84.13,82.62,819.0,9.91,82.6,0.6,6.0,81.9,8.19,1.01
01:31:00,4.9570,1.9989,11.5060,2.5283,84.53,82.98,813.0,9.91,82.6,0.6,6.0,81.3,8.13,1.02
01:31:20,4.9570,1.9992,11.5611,2.5394,84.93,83.35,810.0,9.91,82.6,0.6,6.0,81.0,8.1,1.02
01:31:40,4.9580,1.9990,11.6162,2.5505,85.34,83.71,794.0,9.91,82.6,0.6,6.0,79.4,7.94,1.04
01:32:00,4.9580,1.9993,11.6712,2.5616,85.74,84.08,778.0,9.91,82.6,0.6,6.0,77.8,7.78,1.06
01:32:20,4.9590,1.9990,11.7263,2.5727,86.15,84.44,773.0,9.91,82.6,0.6,6.0,77.3,7.73,1.07
01:32:40,4.9580,1.9993,11.7814,2.5838,86.55,84.81,785.0,9.91,82.6,0.6,6.0,78.5,7.85,1.05
01:33:00,4.9570,1.9994,11.8364,2.5949,86.96,85.17,797.0,9.91,82.6,0.6,6.0,79.7,7.97,1.04
01:33:20,4.9560,1.9994,11.8915,2.6061,87.36,85.54,794.0,9.91,82.6,0.6,6.0,79.4,7.94,1.04
01:33:40,4.9570,1.9989,11.9465,2.6172,87.77,85.90,793.0,9.91,82.6,0.6,6.0,79.3,7.93,1.04
01:34:00,4.9570,1.9992,12.0016,2.6283,88.17,86.26,792.0,9.91,82.6,0.6,6.0,79.2,7.92,1.04
01:34:20,4.9570,1.9996,12.0567,2.6394,88.58,86.63,778.0,9.91,82.6,0.6,6.0,77.8,7.78,1.06
01:34:40,4.9570,1.9995,12.1117,2.6505,88.98,86.99,776.0,9.91,82.6,0.6,6.0,77.6,7.76,1.06
01:35:00,4.7540,1.9995,12.1651,2.6616,89.37,87.36,730.0,9.51,79.3,0.57,5.7,73.0,7.3,1.09
01:35:20,4.2800,1.9995,12.2142,2.6727,89.73,87.72,687.0,8.56,71.3,0.51,5.1,68.7,6.87,1.04
01:35:40,3.6770,1.9135,12.2539,2.6834,90.02,88.07,610.0,7.04,58.7,0.42,4.2,61.0,6.1,0.96
01:36:00,4.4360,1.9997,12.3016,2.6945,90.37,88.44,675.0,8.87,73.9,0.53,5.3,67.5,6.75,1.1
01:36:20,4.5820,2.0002,12.3525,2.7056,90.75,88.80,694.0,9.16,76.3,0.55,5.5,69.4,6.94,1.1
01:36:40,4.3640,1.9997,12.3767,2.7112,90.93,88.99,700.0,8.73,72.8,0.52,5.2,70.0,7.0,1.04
01:37:00,3.7220,1.9434,12.4177,2.7221,91.23,89.34,645.0,7.23,60.3,0.43,4.3,64.5,6.45,0.93
01:37:20,3.5080,1.8249,12.4544,2.7324,91.50,89.68,604.0,6.4,53.3,0.38,3.8,60.4,6.04,0.88
01:37:40,3.6080,1.8782,12.4916,2.7428,91.77,90.02,616.0,6.78,56.5,0.41,4.1,61.6,6.16,0.92
01:38:00,3.5310,1.8357,12.5286,2.7531,92.04,90.36,614.0,6.48,54.0,0.39,3.9,61.4,6.14,0.88
01:38:20,3.4770,1.8115,12.5636,2.7632,92.30,90.69,595.0,6.3,52.5,0.38,3.8,59.5,5.95,0.88
01:38:40,3.5400,1.8438,12.5993,2.7733,92.56,91.03,602.0,6.53,54.4,0.39,3.9,60.2,6.02,0.9
01:39:00,3.6530,1.9060,12.6378,2.7839,92.84,91.37,621.0,6.96,58.0,0.42,4.2,62.1,6.21,0.93
01:39:20,4.5050,1.9998,12.6873,2.7950,93.21,91.74,689.0,9.01,75.1,0.54,5.4,68.9,6.89,1.09
01:39:40,3.7170,1.9351,12.7306,2.8059,93.53,92.10,655.0,7.19,59.9,0.43,4.3,65.5,6.55,0.91
01:40:00,3.4440,1.7938,12.7668,2.8162,93.79,92.43,607.0,6.18,51.5,0.37,3.7,60.7,6.07,0.85
01:40:20,3.2410,1.6873,12.7973,2.8256,94.02,92.74,553.0,5.47,45.6,0.33,3.3,55.3,5.53,0.82
01:40:40,3.2740,1.7016,12.8284,2.8351,94.25,93.05,563.0,5.57,46.4,0.33,3.3,56.3,5.63,0.82
01:41:00,2.8310,1.5340,12.8544,2.8438,94.44,93.34,509.0,4.34,36.2,0.26,2.6,50.9,5.09,0.71
01:41:20,3.1650,1.6528,12.8819,2.8529,94.64,93.64,539.0,5.23,43.6,0.31,3.1,53.9,5.39,0.81
01:41:40,2.8580,1.5628,12.9085,2.8617,94.83,93.93,526.0,4.47,37.3,0.27,2.7,52.6,5.26,0.71
01:42:00,2.8020,1.4368,12.9308,2.8698,95.00,94.19,454.0,4.03,33.6,0.24,2.4,45.4,4.54,0.74
01:42:20,3.6530,1.9017,12.9658,2.8798,95.25,94.52,620.0,6.95,57.9,0.42,4.2,62.0,6.2,0.93
01:42:40,3.7310,1.9416,13.0031,2.8902,95.53,94.86,608.0,7.24,60.3,0.44,4.4,60.8,6.08,0.99
01:43:00,4.5890,1.9986,13.0555,2.9013,95.91,95.23,718.0,9.17,76.4,0.55,5.5,71.8,7.18,1.06
01:43:20,3.7050,1.9311,13.0953,2.9120,96.21,95.58,647.0,7.15,59.6,0.43,4.3,64.7,6.47,0.92
01:43:40,3.6540,1.9005,13.1341,2.9226,96.49,95.93,634.0,6.94,57.8,0.42,4.2,63.4,6.34,0.91
01:44:00,3.5060,1.8230,13.1704,2.9329,96.76,96.26,607.0,6.39,53.3,0.38,3.8,60.7,6.07,0.88
01:44:20,3.2110,1.6729,13.2018,2.9424,96.99,96.57,556.0,5.37,44.8,0.32,3.2,55.6,5.56,0.8
01:44:40,3.3220,1.7350,13.2328,2.9519,97.22,96.89,555.0,5.76,48.0,0.35,3.5,55.5,5.55,0.86
01:45:00,3.4120,1.7786,13.2680,2.9620,97.48,97.22,604.0,6.07,50.6,0.36,3.6,60.4,6.04,0.84
01:45:20,3.3580,1.7523,13.3005,2.9717,97.71,97.54,568.0,5.88,49.0,0.35,3.5,56.8,5.68,0.86
01:45:40,3.8220,1.9915,13.3428,2.9827,98.02,97.90,672.0,7.61,63.4,0.46,4.6,67.2,6.72,0.94
01:46:00,4.5700,1.9986,13.3919,2.9938,98.38,98.26,692.0,9.13,76.1,0.55,5.5,69.2,6.92,1.1
01:46:20,4.8920,2.0001,13.4437,3.0049,98.77,98.63,705.0,9.78,81.5,0.59,5.9,70.5,7.05,1.16
01:46:40,4.8950,1.9994,13.4984,3.0161,99.17,98.99,744.0,9.79,81.6,0.59,5.9,74.4,7.44,1.1
01:47:00,3.7610,1.9659,13.5447,3.0271,99.51,99.35,675.0,7.39,61.6,0.44,4.4,67.5,6.75,0.91
01:47:20,3.5120,1.8258,13.5800,3.0372,99.77,99.69,605.0,6.41,53.4,0.39,3.9,60.5,6.05,0.88
01:47:40,3.3090,1.7182,13.6117,3.0468,100.00,100.00,559.0,5.69,47.4,0.34,3.4,55.9,5.59,0.85
01:47:50,3.3860,1.7652,13.6283,3.0517,100.12,100.16,573.0,5.98,49.8,0.36,3.6,57.3,5.73,0.87