File: output/5/rynotuff-2.csv
Time,Voltage(V),Current(A),Energy(Wh),Capacity(Ah),Energy Proportion(%),Capacity Proportion(%),Irradiance(W/m2),Power(W),Power Score,Watts/oz,cW/oz,Sun Score,Irradiance/100,Efficiency(%)
00:00:00,4.9800,2.0030,0.0277,0.0056,0.28,0.20,687.0,9.97,83.1,0.6,6.0,68.7,6.87,1.21
00:00:20,3.2560,0.7430,0.0346,0.0077,0.35,0.27,301.0,2.42,20.2,0.15,1.5,30.1,3.01,0.67
00:00:40,4.9890,1.9995,0.0851,0.0187,0.87,0.66,679.0,9.98,83.2,0.6,6.0,67.9,6.79,1.22
00:01:00,3.8060,1.9752,0.1337,0.0298,1.37,1.05,652.0,7.52,62.7,0.45,4.5,65.2,6.52,0.96
00:01:20,3.8510,1.9903,0.1766,0.0409,1.81,1.44,644.0,7.66,63.8,0.46,4.6,64.4,6.44,0.99
00:01:40,3.5120,1.8308,0.2127,0.0511,2.18,1.80,617.0,6.43,53.6,0.39,3.9,61.7,6.17,0.87
00:02:00,4.0580,1.9953,0.2565,0.0622,2.63,2.19,648.0,8.1,67.5,0.49,4.9,64.8,6.48,1.04
00:02:20,4.5440,1.9992,0.3057,0.0733,3.13,2.58,655.0,9.08,75.7,0.55,5.5,65.5,6.55,1.16
00:02:40,4.5970,2.0002,0.3561,0.0844,3.65,2.98,654.0,9.19,76.6,0.55,5.5,65.4,6.54,1.17
00:03:00,4.6420,2.0006,0.4076,0.0955,4.18,3.37,628.0,9.29,77.4,0.56,5.6,62.8,6.28,1.23
00:03:20,4.7090,1.9998,0.4600,0.1066,4.71,3.76,661.0,9.42,78.5,0.57,5.7,66.1,6.61,1.19
00:03:40,4.7120,1.9995,0.5122,0.1177,5.25,4.15,661.0,9.42,78.5,0.57,5.7,66.1,6.61,1.19
00:04:00,4.6270,1.9992,0.5639,0.1288,5.78,4.54,659.0,9.25,77.1,0.56,5.6,65.9,6.59,1.17
00:04:20,4.4460,1.9993,0.6132,0.1399,6.28,4.93,656.0,8.89,74.1,0.53,5.3,65.6,6.56,1.13
00:04:40,3.7890,1.9714,0.6551,0.1509,6.71,5.32,633.0,7.47,62.2,0.45,4.5,63.3,6.33,0.98
00:05:00,3.7870,1.9689,0.6967,0.1619,7.14,5.71,631.0,7.46,62.2,0.45,4.5,63.1,6.31,0.99
00:05:20,3.9400,1.9995,0.7399,0.1730,7.58,6.10,642.0,7.88,65.7,0.47,4.7,64.2,6.42,1.02
00:05:40,3.7570,1.9538,0.7811,0.1839,8.00,6.48,627.0,7.34,61.2,0.44,4.4,62.7,6.27,0.98
00:06:00,3.7960,1.9745,0.8224,0.1948,8.42,6.87,633.0,7.5,62.5,0.45,4.5,63.3,6.33,0.99
00:06:20,3.8050,1.9825,0.8644,0.2058,8.85,7.26,634.0,7.54,62.8,0.45,4.5,63.4,6.34,0.99
00:06:40,3.7920,1.9761,0.9061,0.2168,9.28,7.65,634.0,7.49,62.4,0.45,4.5,63.4,6.34,0.98
00:07:00,3.7750,1.9666,0.9474,0.2278,9.70,8.03,630.0,7.42,61.8,0.45,4.5,63.0,6.3,0.98
00:07:20,3.7960,1.9794,0.9889,0.2387,10.13,8.42,632.0,7.51,62.6,0.45,4.5,63.2,6.32,0.99
00:07:40,3.7930,1.9762,1.0308,0.2497,10.56,8.81,633.0,7.5,62.5,0.45,4.5,63.3,6.33,0.99
00:08:00,3.7450,1.9510,1.0717,0.2606,10.98,9.19,625.0,7.31,60.9,0.44,4.4,62.5,6.25,0.97
00:08:20,3.6560,1.9022,1.1109,0.2712,11.38,9.56,610.0,6.95,57.9,0.42,4.2,61.0,6.1,0.95
00:08:40,3.6410,1.8946,1.1491,0.2818,11.77,9.94,604.0,6.9,57.5,0.41,4.1,60.4,6.04,0.95
00:09:00,3.6570,1.9102,1.1878,0.2923,12.17,10.31,608.0,6.99,58.3,0.42,4.2,60.8,6.08,0.96
00:09:20,3.6000,1.8765,1.2260,0.3028,12.56,10.68,598.0,6.76,56.3,0.41,4.1,59.8,5.98,0.94
00:09:40,3.5880,1.8711,1.2631,0.3132,12.94,11.04,594.0,6.71,55.9,0.4,4.0,59.4,5.94,0.94
00:10:00,3.5850,1.8675,1.3004,0.3236,13.32,11.41,593.0,6.69,55.8,0.4,4.0,59.3,5.93,0.94
00:10:20,3.5860,1.8649,1.3375,0.3340,13.70,11.78,592.0,6.69,55.8,0.4,4.0,59.2,5.92,0.94
00:10:40,3.5110,1.8275,1.3737,0.3442,14.07,12.14,584.0,6.42,53.5,0.39,3.9,58.4,5.84,0.92
00:11:00,3.4880,1.8234,1.4088,0.3543,14.43,12.49,577.0,6.36,53.0,0.38,3.8,57.7,5.77,0.92
00:11:20,3.4960,1.8179,1.4443,0.3644,14.79,12.85,579.0,6.36,53.0,0.38,3.8,57.9,5.79,0.92
00:11:40,3.4930,1.8241,1.4798,0.3745,15.16,13.21,581.0,6.37,53.1,0.38,3.8,58.1,5.81,0.91
00:12:00,3.5080,1.8246,1.5151,0.3847,15.52,13.56,579.0,6.4,53.3,0.38,3.8,57.9,5.79,0.92
00:12:20,3.4680,1.8125,1.5504,0.3948,15.88,13.92,579.0,6.29,52.4,0.38,3.8,57.9,5.79,0.91
00:12:40,3.4820,1.8152,1.5852,0.4048,16.24,14.27,575.0,6.32,52.7,0.38,3.8,57.5,5.75,0.92
00:13:00,3.4790,1.8149,1.6206,0.4149,16.60,14.63,578.0,6.31,52.6,0.38,3.8,57.8,5.78,0.91
00:13:20,3.5340,1.8361,1.6566,0.4251,16.97,14.99,584.0,6.49,54.1,0.39,3.9,58.4,5.84,0.93
00:13:40,3.5610,1.8532,1.6930,0.4354,17.34,15.35,587.0,6.6,55.0,0.4,4.0,58.7,5.87,0.94
00:14:00,3.6120,1.8753,1.7304,0.4458,17.72,15.72,598.0,6.77,56.4,0.41,4.1,59.8,5.98,0.94
00:14:20,3.5950,1.8725,1.7679,0.4562,18.11,16.08,596.0,6.73,56.1,0.4,4.0,59.6,5.96,0.94
00:14:40,3.6470,1.8987,1.8060,0.4667,18.50,16.45,603.0,6.92,57.7,0.42,4.2,60.3,6.03,0.96
00:15:00,3.6250,1.8871,1.8443,0.4772,18.89,16.83,602.0,6.84,57.0,0.41,4.1,60.2,6.02,0.95
00:15:20,3.6240,1.8866,1.8822,0.4877,19.28,17.20,602.0,6.84,57.0,0.41,4.1,60.2,6.02,0.95
00:15:40,3.6540,1.9029,1.9207,0.4982,19.67,17.57,605.0,6.95,57.9,0.42,4.2,60.5,6.05,0.96
00:16:00,3.6610,1.9050,1.9593,0.5088,20.07,17.94,609.0,6.97,58.1,0.42,4.2,60.9,6.09,0.95
00:16:20,3.6880,1.9210,1.9986,0.5195,20.47,18.32,615.0,7.08,59.0,0.43,4.3,61.5,6.15,0.96
00:16:40,3.0410,1.6183,2.0318,0.5293,20.81,18.66,562.0,4.92,41.0,0.3,3.0,56.2,5.62,0.73
00:17:00,2.8380,1.4312,2.0590,0.5380,21.09,18.97,490.0,4.06,33.8,0.24,2.4,49.0,4.9,0.69
00:17:20,2.7930,1.3487,2.0806,0.5457,21.31,19.24,467.0,3.77,31.4,0.23,2.3,46.7,4.67,0.67
00:17:40,2.4190,0.3923,2.0889,0.5488,21.39,19.35,154.9,0.95,7.9,0.06,0.6,15.5,1.549,0.51
00:18:00,2.3560,0.3551,2.0937,0.5508,21.44,19.42,125.7,0.84,7.0,0.05,0.5,12.6,1.257,0.56
00:18:20,2.3270,0.3358,2.0982,0.5528,21.49,19.49,120.7,0.78,6.5,0.05,0.5,12.1,1.207,0.54
00:18:40,2.3160,0.3301,2.1025,0.5546,21.53,19.56,118.0,0.76,6.3,0.05,0.5,11.8,1.18,0.54
00:19:00,2.3110,0.3316,2.1067,0.5564,21.58,19.62,118.6,0.77,6.4,0.05,0.5,11.9,1.186,0.54
00:19:20,2.3100,0.3344,2.1110,0.5583,21.62,19.69,118.6,0.77,6.4,0.05,0.5,11.9,1.186,0.54
00:19:40,2.3530,0.4276,2.1160,0.5604,21.67,19.76,139.9,1.01,8.4,0.06,0.6,14.0,1.399,0.6
00:20:00,3.7160,1.9108,2.1524,0.5706,22.05,20.12,613.0,7.1,59.2,0.43,4.3,61.3,6.13,0.97
00:20:20,3.6910,1.9003,2.1913,0.5812,22.44,20.49,610.0,7.01,58.4,0.42,4.2,61.0,6.1,0.96
00:20:40,3.6570,1.8866,2.2298,0.5917,22.84,20.86,607.0,6.9,57.5,0.41,4.1,60.7,6.07,0.95
00:21:00,3.6090,1.8730,2.2676,0.6021,23.23,21.23,600.0,6.76,56.3,0.41,4.1,60.0,6.0,0.94
00:21:20,3.5710,1.8501,2.3046,0.6124,23.60,21.59,594.0,6.61,55.1,0.4,4.0,59.4,5.94,0.93
00:21:40,3.6140,1.8689,2.3419,0.6228,23.99,21.96,597.0,6.75,56.3,0.41,4.1,59.7,5.97,0.94
00:22:00,3.6100,1.8704,2.3792,0.6332,24.37,22.33,598.0,6.75,56.3,0.41,4.1,59.8,5.98,0.94
00:22:20,3.6380,1.8851,2.4171,0.6436,24.76,22.69,603.0,6.86,57.2,0.41,4.1,60.3,6.03,0.95
00:22:40,3.6240,1.8879,2.4552,0.6541,25.15,23.06,603.0,6.84,57.0,0.41,4.1,60.3,6.03,0.95
00:23:00,3.6250,1.8808,2.4931,0.6646,25.54,23.43,600.0,6.82,56.8,0.41,4.1,60.0,6.0,0.95
00:23:20,3.6190,1.8848,2.5309,0.6750,25.92,23.80,602.0,6.82,56.8,0.41,4.1,60.2,6.02,0.94
00:23:40,3.6490,1.8970,2.5693,0.6856,26.32,24.17,606.0,6.92,57.7,0.42,4.2,60.6,6.06,0.95
00:24:00,3.6420,1.8926,2.6076,0.6961,26.71,24.54,604.0,6.89,57.4,0.41,4.1,60.4,6.04,0.95
00:24:20,3.6320,1.8896,2.6457,0.7066,27.10,24.91,604.0,6.86,57.2,0.41,4.1,60.4,6.04,0.95
00:24:40,3.6050,1.8842,2.6837,0.7170,27.49,25.28,603.0,6.79,56.6,0.41,4.1,60.3,6.03,0.94
00:25:00,3.6100,1.8838,2.7215,0.7275,27.87,25.65,601.0,6.8,56.7,0.41,4.1,60.1,6.01,0.94
00:25:20,3.6440,1.8940,2.7597,0.7380,28.27,26.02,607.0,6.9,57.5,0.41,4.1,60.7,6.07,0.95
00:25:40,3.6560,1.9005,2.7982,0.7486,28.66,26.39,607.0,6.95,57.9,0.42,4.2,60.7,6.07,0.95
00:26:00,3.6170,1.8875,2.8364,0.7591,29.05,26.77,602.0,6.83,56.9,0.41,4.1,60.2,6.02,0.95
00:26:20,3.5880,1.8674,2.8739,0.7695,29.44,27.13,597.0,6.7,55.8,0.4,4.0,59.7,5.97,0.94
00:26:40,3.5850,1.8665,2.9109,0.7798,29.81,27.50,595.0,6.69,55.8,0.4,4.0,59.5,5.95,0.94
00:27:00,3.6000,1.8695,2.9482,0.7902,30.20,27.86,598.0,6.73,56.1,0.4,4.0,59.8,5.98,0.94
00:27:20,3.5520,1.8538,2.9850,0.8005,30.57,28.23,590.0,6.58,54.8,0.4,4.0,59.0,5.9,0.93
00:27:40,3.5440,1.8411,3.0212,0.8108,30.94,28.59,588.0,6.52,54.3,0.39,3.9,58.8,5.88,0.92
00:28:00,3.5320,1.8385,3.0574,0.8210,31.32,28.95,584.0,6.49,54.1,0.39,3.9,58.4,5.84,0.93
00:28:20,3.4520,1.8015,3.0922,0.8311,31.67,29.30,572.0,6.22,51.8,0.37,3.7,57.2,5.72,0.91
00:28:40,3.4630,1.8034,3.1267,0.8411,32.02,29.66,573.0,6.25,52.1,0.38,3.8,57.3,5.73,0.91
00:29:00,3.4640,1.8022,3.1615,0.8511,32.38,30.01,574.0,6.24,52.0,0.38,3.8,57.4,5.74,0.91
00:29:20,3.3860,1.7646,3.1949,0.8609,32.72,30.36,560.0,5.97,49.8,0.36,3.6,56.0,5.6,0.89
00:29:40,3.3210,1.7325,3.2274,0.8706,33.06,30.70,551.0,5.75,47.9,0.35,3.5,55.1,5.51,0.87
00:30:00,3.1670,1.6639,3.2574,0.8800,33.36,31.03,530.0,5.27,43.9,0.32,3.2,53.0,5.3,0.83
00:30:20,3.0510,1.6132,3.2852,0.8890,33.65,31.35,508.0,4.92,41.0,0.3,3.0,50.8,5.08,0.81
00:30:40,3.2220,1.6910,3.3144,0.8982,33.95,31.67,532.0,5.45,45.4,0.33,3.3,53.2,5.32,0.85
00:31:00,3.2880,1.7248,3.3458,0.9078,34.27,32.01,544.0,5.67,47.3,0.34,3.4,54.4,5.44,0.87
00:31:20,3.3930,1.7705,3.3789,0.9176,34.61,32.35,560.0,6.01,50.1,0.36,3.6,56.0,5.6,0.89
00:31:40,3.3860,1.7731,3.4123,0.9274,34.95,32.70,563.0,6.0,50.0,0.36,3.6,56.3,5.63,0.89
00:32:00,3.3460,1.7449,3.4450,0.9372,35.29,33.05,554.0,5.84,48.7,0.35,3.5,55.4,5.54,0.88
00:32:20,3.2710,1.7094,3.4763,0.9467,35.61,33.38,540.0,5.59,46.6,0.34,3.4,54.0,5.4,0.86
00:32:40,3.2630,1.7028,3.5072,0.9562,35.92,33.72,537.0,5.56,46.3,0.33,3.3,53.7,5.37,0.86
00:33:00,3.2770,1.7084,3.5383,0.9657,36.24,34.05,541.0,5.6,46.7,0.34,3.4,54.1,5.41,0.86
00:33:20,3.2580,1.7048,3.5692,0.9752,36.56,34.38,538.0,5.55,46.3,0.33,3.3,53.8,5.38,0.86
00:33:40,3.2680,1.7067,3.6000,0.9846,36.87,34.72,538.0,5.58,46.5,0.34,3.4,53.8,5.38,0.86
00:34:00,3.3420,1.7466,3.6321,0.9943,37.20,35.06,553.0,5.84,48.7,0.35,3.5,55.3,5.53,0.88
00:34:20,3.3400,1.7459,3.6645,1.0040,37.53,35.40,553.0,5.83,48.6,0.35,3.5,55.3,5.53,0.88
00:34:40,3.3590,1.7528,3.6972,1.0137,37.87,35.74,561.0,5.89,49.1,0.35,3.5,56.1,5.61,0.87
00:35:00,3.3580,1.7540,3.7301,1.0235,38.20,36.09,558.0,5.89,49.1,0.35,3.5,55.8,5.58,0.88
00:35:20,3.3680,1.7603,3.7632,1.0333,38.54,36.43,564.0,5.93,49.4,0.36,3.6,56.4,5.64,0.88
00:35:40,3.2730,1.7193,3.7945,1.0429,38.87,36.77,544.0,5.63,46.9,0.34,3.4,54.4,5.44,0.86
00:36:00,3.0030,0.7989,3.8179,1.0500,39.10,37.02,447.0,2.4,20.0,0.14,1.4,44.7,4.47,0.45
00:36:20,2.9420,1.6055,3.8369,1.0565,39.30,37.25,480.0,4.72,39.3,0.28,2.8,48.0,4.8,0.82
00:36:40,3.5110,1.8349,3.8716,1.0666,39.65,37.61,583.0,6.44,53.7,0.39,3.9,58.3,5.83,0.92
00:37:00,3.5360,1.8437,3.9076,1.0768,40.02,37.97,585.0,6.52,54.3,0.39,3.9,58.5,5.85,0.93
00:37:20,3.5800,1.8583,3.9444,1.0871,40.40,38.33,592.0,6.65,55.4,0.4,4.0,59.2,5.92,0.94
00:37:40,3.5600,1.8502,3.9810,1.0974,40.78,38.69,589.0,6.59,54.9,0.4,4.0,58.9,5.89,0.93
00:38:00,3.5390,1.8396,4.0173,1.1076,41.15,39.05,588.0,6.51,54.3,0.39,3.9,58.8,5.88,0.92
00:38:20,3.5360,1.8373,4.0534,1.1178,41.52,39.41,583.0,6.5,54.2,0.39,3.9,58.3,5.83,0.93
00:38:40,3.5280,1.8431,4.0896,1.1281,41.89,39.78,586.0,6.5,54.2,0.39,3.9,58.6,5.86,0.92
00:39:00,3.5480,1.8434,4.1259,1.1383,42.26,40.14,587.0,6.54,54.5,0.39,3.9,58.7,5.87,0.93
00:39:20,3.5190,1.8403,4.1619,1.1485,42.63,40.50,587.0,6.48,54.0,0.39,3.9,58.7,5.87,0.92
00:39:40,3.5220,1.8420,4.1981,1.1588,43.00,40.86,586.0,6.49,54.1,0.39,3.9,58.6,5.86,0.92
00:40:00,3.5220,1.8397,4.2342,1.1690,43.37,41.22,586.0,6.48,54.0,0.39,3.9,58.6,5.86,0.92
00:40:20,3.5310,1.8327,4.2701,1.1792,43.74,41.58,585.0,6.47,53.9,0.39,3.9,58.5,5.85,0.92
00:40:40,3.4710,1.8252,4.3055,1.1893,44.10,41.94,579.0,6.34,52.8,0.38,3.8,57.9,5.79,0.91
00:41:00,3.4810,1.8138,4.3406,1.1994,44.46,42.29,578.0,6.31,52.6,0.38,3.8,57.8,5.78,0.91
00:41:20,3.4560,1.7998,4.3754,1.2094,44.81,42.64,573.0,6.22,51.8,0.37,3.7,57.3,5.73,0.9
00:41:40,3.4130,1.7849,4.4094,1.2194,45.16,43.00,568.0,6.09,50.7,0.37,3.7,56.8,5.68,0.89
00:42:00,3.2080,1.6833,4.4411,1.2290,45.49,43.33,539.0,5.4,45.0,0.32,3.2,53.9,5.39,0.83
00:42:20,3.3830,1.7750,4.4741,1.2388,45.83,43.68,560.0,6.0,50.0,0.36,3.6,56.0,5.6,0.89
00:42:40,3.2970,1.7277,4.5066,1.2485,46.16,44.02,552.0,5.7,47.5,0.34,3.4,55.2,5.52,0.86
00:43:00,2.5540,0.5715,4.5161,1.2520,46.26,44.15,256.0,1.46,12.2,0.09,0.9,25.6,2.56,0.48
00:43:20,2.2980,0.2745,4.5199,1.2537,46.30,44.21,93.8,0.63,5.3,0.04,0.4,9.4,0.938,0.56
00:43:40,2.2960,0.2724,4.5234,1.2552,46.33,44.26,91.5,0.63,5.3,0.04,0.4,9.2,0.915,0.57
00:44:00,2.2980,0.2728,4.5269,1.2567,46.37,44.31,91.7,0.63,5.3,0.04,0.4,9.2,0.917,0.57
00:44:20,2.2990,0.2720,4.5304,1.2582,46.40,44.37,91.3,0.63,5.3,0.04,0.4,9.1,0.913,0.58
00:44:40,2.3020,0.2764,4.5339,1.2597,46.44,44.42,91.7,0.64,5.3,0.04,0.4,9.2,0.917,0.58
00:45:00,2.3050,0.2817,4.5375,1.2613,46.47,44.47,94.0,0.65,5.4,0.04,0.4,9.4,0.94,0.58
00:45:20,2.3070,0.2865,4.5412,1.2629,46.51,44.53,94.7,0.66,5.5,0.04,0.4,9.5,0.947,0.58
00:45:40,2.3100,0.2920,4.5449,1.2645,46.55,44.59,95.6,0.67,5.6,0.04,0.4,9.6,0.956,0.58
00:46:00,2.4530,0.5816,4.5508,1.2670,46.61,44.67,155.3,1.43,11.9,0.09,0.9,15.5,1.553,0.77
00:46:20,3.3030,1.7259,4.5824,1.2766,46.94,45.01,551.0,5.7,47.5,0.34,3.4,55.1,5.51,0.86
00:46:40,3.2970,1.7225,4.6140,1.2861,47.26,45.35,549.0,5.68,47.3,0.34,3.4,54.9,5.49,0.86
00:47:00,3.3100,1.7260,4.6456,1.2957,47.58,45.69,553.0,5.71,47.6,0.34,3.4,55.3,5.53,0.86
00:47:20,3.3060,1.7265,4.6774,1.3053,47.91,46.03,551.0,5.71,47.6,0.34,3.4,55.1,5.51,0.86
00:47:40,3.2660,1.7118,4.7086,1.3148,48.23,46.36,546.0,5.59,46.6,0.34,3.4,54.6,5.46,0.85
00:48:00,3.2560,1.7047,4.7395,1.3243,48.54,46.70,541.0,5.55,46.3,0.33,3.3,54.1,5.41,0.85
00:48:20,3.2640,1.7030,4.7704,1.3338,48.86,47.03,540.0,5.56,46.3,0.33,3.3,54.0,5.4,0.86
00:48:40,3.2430,1.6999,4.8011,1.3432,49.17,47.36,538.0,5.51,45.9,0.33,3.3,53.8,5.38,0.85
00:49:00,3.2320,1.6881,4.8314,1.3526,49.49,47.69,534.0,5.46,45.5,0.33,3.3,53.4,5.34,0.85
00:49:20,3.2150,1.6839,4.8615,1.3620,49.79,48.02,533.0,5.41,45.1,0.33,3.3,53.3,5.33,0.85
00:49:40,3.2120,1.6812,4.8915,1.3713,50.10,48.35,530.0,5.4,45.0,0.32,3.2,53.0,5.3,0.85
00:50:00,3.2120,1.6798,4.9215,1.3806,50.41,48.68,533.0,5.4,45.0,0.32,3.2,53.3,5.33,0.84
00:50:20,3.2100,1.6814,4.9514,1.3900,50.71,49.01,531.0,5.4,45.0,0.32,3.2,53.1,5.31,0.85
00:50:40,3.2160,1.6804,4.9814,1.3993,51.02,49.34,531.0,5.4,45.0,0.32,3.2,53.1,5.31,0.85
00:51:00,3.1990,1.6764,5.0112,1.4086,51.33,49.67,531.0,5.36,44.7,0.32,3.2,53.1,5.31,0.84
00:51:20,3.1980,1.6720,5.0409,1.4179,51.63,50.00,527.0,5.35,44.6,0.32,3.2,52.7,5.27,0.85
00:51:40,3.2000,1.6773,5.0708,1.4273,51.94,50.33,528.0,5.37,44.8,0.32,3.2,52.8,5.28,0.85
00:52:00,3.2020,1.6743,5.1006,1.4366,52.24,50.65,527.0,5.36,44.7,0.32,3.2,52.7,5.27,0.85
00:52:20,3.1950,1.6730,5.1302,1.4459,52.55,50.98,527.0,5.35,44.6,0.32,3.2,52.7,5.27,0.85
00:52:40,3.1890,1.6736,5.1599,1.4552,52.85,51.31,526.0,5.34,44.5,0.32,3.2,52.6,5.26,0.85
00:53:00,3.1900,1.6727,5.1896,1.4644,53.15,51.64,525.0,5.34,44.5,0.32,3.2,52.5,5.25,0.85
00:53:20,3.1860,1.6725,5.2192,1.4737,53.46,51.96,524.0,5.33,44.4,0.32,3.2,52.4,5.24,0.85
00:53:40,3.2010,1.6757,5.2490,1.4830,53.76,52.29,527.0,5.36,44.7,0.32,3.2,52.7,5.27,0.85
00:54:00,3.1890,1.6714,5.2786,1.4923,54.07,52.62,525.0,5.33,44.4,0.32,3.2,52.5,5.25,0.85
00:54:20,3.1800,1.6687,5.3082,1.5016,54.37,52.95,523.0,5.31,44.2,0.32,3.2,52.3,5.23,0.85
00:54:40,3.1780,1.6657,5.3376,1.5109,54.67,53.27,524.0,5.29,44.1,0.32,3.2,52.4,5.24,0.84
00:55:00,3.1610,1.6602,5.3668,1.5201,54.97,53.60,520.0,5.25,43.8,0.32,3.2,52.0,5.2,0.84
00:55:20,3.1550,1.6564,5.3959,1.5293,55.27,53.92,520.0,5.23,43.6,0.31,3.1,52.0,5.2,0.84
00:55:40,3.1350,1.6472,5.4247,1.5385,55.56,54.25,518.0,5.16,43.0,0.31,3.1,51.8,5.18,0.83
00:56:00,3.1180,1.6409,5.4532,1.5476,55.85,54.57,517.0,5.12,42.7,0.31,3.1,51.7,5.17,0.83
00:56:20,3.1030,1.6341,5.4814,1.5567,56.14,54.89,513.0,5.07,42.3,0.3,3.0,51.3,5.13,0.82
00:56:40,3.0700,1.6247,5.5092,1.5657,56.43,55.21,510.0,4.99,41.6,0.3,3.0,51.0,5.1,0.82
00:57:00,2.9640,1.6207,5.5360,1.5747,56.70,55.53,508.0,4.8,40.0,0.29,2.9,50.8,5.08,0.79
00:57:20,2.9440,1.6116,5.5624,1.5837,56.97,55.84,506.0,4.74,39.5,0.28,2.8,50.6,5.06,0.78
00:57:40,2.9300,1.6029,5.5886,1.5926,57.24,56.16,503.0,4.7,39.2,0.28,2.8,50.3,5.03,0.78
00:58:00,2.9180,1.5958,5.6145,1.6015,57.51,56.47,501.0,4.66,38.8,0.28,2.8,50.1,5.01,0.78
00:58:20,2.9140,1.5940,5.6403,1.6103,57.77,56.78,498.0,4.64,38.7,0.28,2.8,49.8,4.98,0.78
00:58:40,2.9080,1.5893,5.6660,1.6192,58.03,57.09,500.0,4.62,38.5,0.28,2.8,50.0,5.0,0.77
00:59:00,2.8990,1.5855,5.6916,1.6280,58.30,57.40,496.0,4.6,38.3,0.28,2.8,49.6,4.96,0.77
00:59:20,2.9120,1.5868,5.7172,1.6368,58.56,57.71,497.0,4.62,38.5,0.28,2.8,49.7,4.97,0.77
00:59:40,2.9150,1.5929,5.7430,1.6456,58.82,58.03,497.0,4.64,38.7,0.28,2.8,49.7,4.97,0.78
01:00:00,2.9120,1.5901,5.7687,1.6545,59.09,58.34,499.0,4.63,38.6,0.28,2.8,49.9,4.99,0.77
01:00:20,2.9130,1.5903,5.7944,1.6633,59.35,58.65,499.0,4.63,38.6,0.28,2.8,49.9,4.99,0.77
01:00:40,2.9060,1.5865,5.8201,1.6721,59.61,58.96,497.0,4.61,38.4,0.28,2.8,49.7,4.97,0.77
01:01:00,2.9140,1.5877,5.8457,1.6809,59.87,59.27,500.0,4.63,38.6,0.28,2.8,50.0,5.0,0.77
01:01:20,2.9160,1.5902,5.8715,1.6898,60.14,59.58,501.0,4.64,38.7,0.28,2.8,50.1,5.01,0.77
01:01:40,2.9100,1.5874,5.8972,1.6986,60.40,59.89,497.0,4.62,38.5,0.28,2.8,49.7,4.97,0.77
01:02:00,2.9110,1.5855,5.9228,1.7074,60.66,60.20,498.0,4.62,38.5,0.28,2.8,49.8,4.98,0.77
01:02:20,2.8960,1.5791,5.9482,1.7162,60.92,60.51,495.0,4.57,38.1,0.27,2.7,49.5,4.95,0.77
01:02:40,2.8830,1.5739,5.9735,1.7249,61.18,60.82,496.0,4.54,37.8,0.27,2.7,49.6,4.96,0.76
01:03:00,2.8870,1.5742,5.9987,1.7337,61.44,61.13,495.0,4.54,37.8,0.27,2.7,49.5,4.95,0.76
01:03:20,2.8800,1.5711,6.0239,1.7424,61.70,61.44,492.0,4.52,37.7,0.27,2.7,49.2,4.92,0.77
01:03:40,2.8710,1.5649,6.0489,1.7511,61.95,61.74,492.0,4.49,37.4,0.27,2.7,49.2,4.92,0.76
01:04:00,2.8420,1.5521,6.0735,1.7598,62.21,62.05,489.0,4.41,36.8,0.27,2.7,48.9,4.89,0.75
01:04:20,2.8110,1.5348,6.0976,1.7683,62.45,62.35,482.0,4.31,35.9,0.26,2.6,48.2,4.82,0.75
01:04:40,2.7990,1.5268,6.1214,1.7768,62.70,62.65,482.0,4.27,35.6,0.26,2.6,48.2,4.82,0.74
01:05:00,2.7900,1.5204,6.1450,1.7853,62.94,62.95,476.0,4.24,35.3,0.25,2.5,47.6,4.76,0.74
01:05:20,2.7700,1.5099,6.1683,1.7937,63.18,63.25,473.0,4.18,34.8,0.25,2.5,47.3,4.73,0.74
01:05:40,2.7420,1.4945,6.1912,1.8020,63.41,63.54,468.0,4.1,34.2,0.25,2.5,46.8,4.68,0.73
01:06:00,2.7390,1.4921,6.2139,1.8103,63.65,63.83,468.0,4.09,34.1,0.25,2.5,46.8,4.68,0.73
01:06:20,5.3350,0.0093,6.2253,1.8144,63.76,63.98,463.0,0.05,0.4,0.0,0.0,46.3,4.63,0.01
01:06:40,5.3350,0.0093,6.2365,1.8185,63.88,64.12,453.0,0.05,0.4,0.0,0.0,45.3,4.53,0.01
01:07:00,4.9060,0.6545,6.2454,1.8203,63.97,64.19,449.0,3.21,26.8,0.19,1.9,44.9,4.49,0.6
01:07:20,3.6100,1.0608,6.2676,1.8256,64.20,64.37,406.0,3.83,31.9,0.23,2.3,40.6,4.06,0.79
01:07:40,2.7330,1.3659,6.2883,1.8323,64.41,64.61,431.0,3.73,31.1,0.22,2.2,43.1,4.31,0.72
01:08:00,2.7380,1.3448,6.2986,1.8361,64.51,64.74,429.0,3.68,30.7,0.22,2.2,42.9,4.29,0.71
01:08:20,2.7450,1.3939,6.3198,1.8428,64.73,64.98,429.0,3.83,31.9,0.23,2.3,42.9,4.29,0.74
01:08:40,2.7640,1.4036,6.3307,1.8467,64.84,65.12,438.0,3.88,32.3,0.23,2.3,43.8,4.38,0.74
01:09:00,2.7730,1.3933,6.3415,1.8506,64.95,65.25,434.0,3.86,32.2,0.23,2.3,43.4,4.34,0.74
01:09:20,4.7350,0.0104,6.3506,1.8525,65.05,65.32,441.0,0.05,0.4,0.0,0.0,44.1,4.41,0.01
01:09:40,2.8040,1.4443,6.3730,1.8605,65.27,65.60,449.0,4.05,33.8,0.24,2.4,44.9,4.49,0.75
01:10:00,2.8080,1.4522,6.3956,1.8685,65.51,65.89,453.0,4.08,34.0,0.25,2.5,45.3,4.53,0.75
01:10:20,2.8130,1.4491,6.4183,1.8766,65.74,66.17,454.0,4.08,34.0,0.25,2.5,45.4,4.54,0.75
01:10:40,2.8160,1.4466,6.4409,1.8846,65.97,66.45,451.0,4.07,33.9,0.24,2.4,45.1,4.51,0.75
01:11:00,2.8170,1.4469,6.4636,1.8927,66.20,66.74,452.0,4.08,34.0,0.25,2.5,45.2,4.52,0.75
01:11:20,2.8190,1.4453,6.4862,1.9007,66.43,67.02,451.0,4.07,33.9,0.24,2.4,45.1,4.51,0.75
01:11:40,2.8220,1.4483,6.5089,1.9087,66.67,67.30,451.0,4.09,34.1,0.25,2.5,45.1,4.51,0.76
01:12:00,2.8240,1.4542,6.5317,1.9168,66.90,67.59,455.0,4.11,34.3,0.25,2.5,45.5,4.55,0.75
01:12:20,2.8220,1.4562,6.5545,1.9249,67.13,67.87,454.0,4.11,34.3,0.25,2.5,45.4,4.54,0.75
01:12:40,2.8240,1.4522,6.5773,1.9330,67.37,68.16,455.0,4.1,34.2,0.25,2.5,45.5,4.55,0.75
01:13:00,2.8240,1.4481,6.6001,1.9410,67.60,68.44,452.0,4.09,34.1,0.25,2.5,45.2,4.52,0.75
01:13:20,2.8250,1.4461,6.6228,1.9491,67.83,68.73,453.0,4.09,34.1,0.25,2.5,45.3,4.53,0.75
01:13:40,2.8250,1.4440,6.6455,1.9571,68.07,69.01,453.0,4.08,34.0,0.25,2.5,45.3,4.53,0.75
01:14:00,2.8270,1.4478,6.6682,1.9651,68.30,69.29,452.0,4.09,34.1,0.25,2.5,45.2,4.52,0.75
01:14:20,2.8300,1.4497,6.6910,1.9732,68.53,69.58,453.0,4.1,34.2,0.25,2.5,45.3,4.53,0.75
01:14:40,2.8290,1.4459,6.7137,1.9812,68.76,69.86,453.0,4.09,34.1,0.25,2.5,45.3,4.53,0.75
01:15:00,2.8280,1.4397,6.7364,1.9892,69.00,70.14,451.0,4.07,33.9,0.24,2.4,45.1,4.51,0.75
01:15:20,2.8260,1.4323,6.7589,1.9972,69.23,70.42,447.0,4.05,33.8,0.24,2.4,44.7,4.47,0.76
01:15:40,2.8220,1.4238,6.7813,2.0051,69.46,70.70,445.0,4.02,33.5,0.24,2.4,44.5,4.45,0.75
01:16:00,2.8210,1.4145,6.8035,2.0130,69.68,70.98,443.0,3.99,33.3,0.24,2.4,44.3,4.43,0.75
01:16:20,2.8200,1.4026,6.8255,2.0208,69.91,71.25,437.0,3.96,33.0,0.24,2.4,43.7,4.37,0.76
01:16:40,2.8070,1.3945,6.8473,2.0286,70.13,71.53,437.0,3.91,32.6,0.23,2.3,43.7,4.37,0.75
01:17:00,2.8140,1.3783,6.8689,2.0362,70.35,71.80,431.0,3.88,32.3,0.23,2.3,43.1,4.31,0.75
01:17:20,2.8110,1.3691,6.8903,2.0439,70.57,72.07,427.0,3.85,32.1,0.23,2.3,42.7,4.27,0.75
01:17:40,2.8140,1.3709,6.9117,2.0515,70.79,72.34,429.0,3.86,32.2,0.23,2.3,42.9,4.29,0.75
01:18:00,2.8120,1.3704,6.9331,2.0591,71.01,72.60,428.0,3.85,32.1,0.23,2.3,42.8,4.28,0.75
01:18:20,2.8140,1.3642,6.9544,2.0667,71.23,72.87,426.0,3.84,32.0,0.23,2.3,42.6,4.26,0.75
01:18:40,0.8420,0.0138,6.9546,2.0667,71.23,72.87,421.0,0.01,0.1,0.0,0.0,42.1,4.21,0.0
01:19:00,5.3360,0.0092,6.9652,2.0705,71.34,73.01,420.0,0.05,0.4,0.0,0.0,42.0,4.2,0.01
01:19:20,5.3360,0.0092,6.9759,2.0743,71.45,73.14,420.0,0.05,0.4,0.0,0.0,42.0,4.2,0.01
01:19:40,5.3360,0.0092,6.9865,2.0780,71.56,73.27,416.0,0.05,0.4,0.0,0.0,41.6,4.16,0.01
01:20:00,4.0910,1.0187,6.9981,2.0809,71.68,73.37,413.0,4.17,34.8,0.25,2.5,41.3,4.13,0.84
01:20:20,2.8100,1.3196,7.0085,2.0845,71.78,73.50,411.0,3.71,30.9,0.22,2.2,41.1,4.11,0.75
01:20:40,2.1030,0.8609,7.0137,2.0870,71.84,73.59,411.0,1.81,15.1,0.11,1.1,41.1,4.11,0.37
01:21:00,3.7140,0.0051,7.0152,2.0873,71.85,73.60,409.0,0.02,0.2,0.0,0.0,40.9,4.09,0.0
01:21:20,5.3370,0.0092,7.0256,2.0909,71.96,73.73,406.0,0.05,0.4,0.0,0.0,40.6,4.06,0.01
01:21:40,5.3370,0.0092,7.0359,2.0945,72.06,73.85,403.0,0.05,0.4,0.0,0.0,40.3,4.03,0.01
01:22:00,5.3350,0.2695,7.0399,2.0953,72.11,73.88,398.0,1.44,12.0,0.09,0.9,39.8,3.98,0.3
01:22:20,2.8140,1.2694,7.0499,2.0988,72.21,74.01,394.0,3.57,29.8,0.21,2.1,39.4,3.94,0.76
01:22:40,2.8100,1.2386,7.0597,2.1023,72.31,74.13,385.0,3.48,29.0,0.21,2.1,38.5,3.85,0.75
01:23:00,3.1880,0.9081,7.0774,2.1070,72.49,74.29,381.0,2.9,24.2,0.17,1.7,38.1,3.81,0.63
01:23:20,2.9600,0.8974,7.0925,2.1120,72.64,74.47,383.0,2.66,22.2,0.16,1.6,38.3,3.83,0.58
01:23:40,2.8250,0.8873,7.1066,2.1169,72.79,74.64,385.0,2.51,20.9,0.15,1.5,38.5,3.85,0.54
01:24:00,2.7660,0.8968,7.1204,2.1219,72.93,74.82,390.0,2.48,20.7,0.15,1.5,39.0,3.9,0.53
01:24:20,2.7750,0.9154,7.1344,2.1270,73.07,75.00,397.0,2.54,21.2,0.15,1.5,39.7,3.97,0.53
01:24:40,2.9940,0.9402,7.1495,2.1322,73.23,75.18,399.0,2.81,23.4,0.17,1.7,39.9,3.99,0.59
01:25:00,3.6480,1.1664,7.1709,2.1382,73.45,75.39,402.0,4.26,35.5,0.26,2.6,40.2,4.02,0.88
01:25:20,3.4810,1.0164,7.1914,2.1440,73.66,75.60,406.0,3.54,29.5,0.21,2.1,40.6,4.06,0.73
01:25:40,3.3420,1.0031,7.2102,2.1495,73.85,75.79,406.0,3.35,27.9,0.2,2.0,40.6,4.06,0.69
01:26:00,3.4800,1.0311,7.2294,2.1552,74.05,75.99,406.0,3.59,29.9,0.22,2.2,40.6,4.06,0.74
01:26:20,3.6310,1.1921,7.2535,2.1618,74.29,76.22,411.0,4.33,36.1,0.26,2.6,41.1,4.11,0.88
01:26:40,3.6540,1.1726,7.2772,2.1683,74.54,76.45,412.0,4.28,35.7,0.26,2.6,41.2,4.12,0.87
01:27:00,5.3370,0.0092,7.2894,2.1716,74.66,76.57,415.0,0.05,0.4,0.0,0.0,41.5,4.15,0.01
01:27:20,3.6520,1.2078,7.3018,2.1750,74.79,76.69,416.0,4.41,36.8,0.27,2.7,41.6,4.16,0.88
01:27:40,5.1560,0.4875,7.3207,2.1796,74.98,76.85,416.0,2.51,20.9,0.15,1.5,41.6,4.16,0.5
01:28:00,3.6510,1.1878,7.3447,2.1862,75.23,77.08,416.0,4.34,36.2,0.26,2.6,41.6,4.16,0.87
01:28:20,5.3370,0.0093,7.3569,2.1895,75.35,77.20,416.0,0.05,0.4,0.0,0.0,41.6,4.16,0.01
01:28:40,5.3230,0.0714,7.3581,2.1897,75.36,77.21,414.0,0.38,3.2,0.02,0.2,41.4,4.14,0.08
01:29:00,3.6540,1.1838,7.3819,2.1962,75.61,77.44,411.0,4.33,36.1,0.26,2.6,41.1,4.11,0.88
01:29:20,5.3370,0.0093,7.3939,2.1995,75.73,77.55,409.0,0.05,0.4,0.0,0.0,40.9,4.09,0.01
01:29:40,5.3370,0.0092,7.4059,2.2028,75.85,77.67,409.0,0.05,0.4,0.0,0.0,40.9,4.09,0.01
01:30:00,3.6640,1.1725,7.4298,2.2093,76.10,77.90,411.0,4.3,35.8,0.26,2.6,41.1,4.11,0.87
01:30:20,5.3370,0.0093,7.4301,2.2093,76.10,77.90,411.0,0.05,0.4,0.0,0.0,41.1,4.11,0.01
01:30:40,3.6640,1.1735,7.4422,2.2126,76.23,78.02,413.0,4.3,35.8,0.26,2.6,41.3,4.13,0.87
01:31:00,3.6570,1.1725,7.4660,2.2191,76.47,78.25,411.0,4.29,35.8,0.26,2.6,41.1,4.11,0.87
01:31:20,5.3370,0.0092,7.4779,2.2224,76.59,78.36,409.0,0.05,0.4,0.0,0.0,40.9,4.09,0.01
01:31:40,5.3370,0.0092,7.4898,2.2256,76.71,78.48,407.0,0.05,0.4,0.0,0.0,40.7,4.07,0.01
01:32:00,3.6650,1.1551,7.5133,2.2320,76.95,78.70,404.0,4.23,35.3,0.25,2.5,40.4,4.04,0.87
01:32:20,3.6540,1.1591,7.5368,2.2385,77.19,78.93,402.0,4.24,35.3,0.25,2.5,40.2,4.02,0.88
01:32:40,3.6770,1.1502,7.5491,2.2418,77.32,79.05,397.0,4.23,35.3,0.25,2.5,39.7,3.97,0.89
01:33:00,3.6610,1.1177,7.5720,2.2480,77.56,79.27,394.0,4.09,34.1,0.25,2.5,39.4,3.94,0.87
01:33:20,5.0890,0.4651,7.5900,2.2524,77.74,79.42,389.0,2.37,19.8,0.14,1.4,38.9,3.89,0.51
01:33:40,5.3370,0.0092,7.5903,2.2525,77.74,79.42,385.0,0.05,0.4,0.0,0.0,38.5,3.85,0.01
01:34:00,3.6900,1.1042,7.6017,2.2556,77.86,79.53,381.0,4.07,33.9,0.24,2.4,38.1,3.81,0.89
01:34:20,3.6790,1.0858,7.6240,2.2616,78.09,79.74,379.0,3.99,33.3,0.24,2.4,37.9,3.79,0.88
01:34:40,3.6910,1.0874,7.6462,2.2676,78.32,79.96,376.0,4.01,33.4,0.24,2.4,37.6,3.76,0.89
01:35:00,3.7020,1.0762,7.6684,2.2736,78.54,80.17,375.0,3.98,33.2,0.24,2.4,37.5,3.75,0.88
01:35:20,5.3370,0.0093,7.6797,2.2767,78.66,80.28,376.0,0.05,0.4,0.0,0.0,37.6,3.76,0.01
01:35:40,3.7120,1.0696,7.7018,2.2826,78.88,80.49,378.0,3.97,33.1,0.24,2.4,37.8,3.78,0.88
01:36:00,3.6960,1.0950,7.7220,2.2875,79.09,80.66,378.0,4.05,33.8,0.24,2.4,37.8,3.78,0.89
01:36:20,3.6930,1.0909,7.7361,2.2911,79.24,80.78,378.0,4.03,33.6,0.24,2.4,37.8,3.78,0.89
01:36:40,3.6930,1.0870,7.7584,2.2971,79.46,81.00,377.0,4.01,33.4,0.24,2.4,37.7,3.77,0.89
01:37:00,3.6990,1.0670,7.7797,2.3021,79.68,81.17,374.0,3.95,32.9,0.24,2.4,37.4,3.74,0.88
01:37:20,5.3380,0.0092,7.7910,2.3052,79.80,81.28,372.0,0.05,0.4,0.0,0.0,37.2,3.72,0.01
01:37:40,3.6900,1.0705,7.8021,2.3082,79.91,81.39,373.0,3.95,32.9,0.24,2.4,37.3,3.73,0.88
01:38:00,3.7010,1.0672,7.8239,2.3141,80.14,81.59,373.0,3.95,32.9,0.24,2.4,37.3,3.73,0.88
01:38:20,3.6950,1.0526,7.8349,2.3170,80.25,81.70,370.0,3.89,32.4,0.23,2.3,37.0,3.7,0.88
01:38:40,3.6930,1.0806,7.8511,2.3210,80.41,81.84,373.0,3.99,33.3,0.24,2.4,37.3,3.73,0.89
01:39:00,5.3380,0.0091,7.8514,2.3211,80.42,81.84,373.0,0.05,0.4,0.0,0.0,37.3,3.73,0.01
01:39:20,3.7020,1.0541,7.8733,2.3270,80.64,82.05,368.0,3.9,32.5,0.23,2.3,36.8,3.68,0.88
01:39:40,3.0950,0.6935,7.8898,2.3318,80.81,82.22,295.0,2.15,17.9,0.13,1.3,29.5,2.95,0.61
01:40:00,2.4610,0.3899,7.8984,2.3347,80.90,82.32,161.2,0.96,8.0,0.06,0.6,16.1,1.612,0.5
01:40:20,2.5740,0.2967,7.9030,2.3365,80.95,82.39,131.6,0.76,6.3,0.05,0.5,13.2,1.316,0.48
01:40:40,3.4010,0.2043,7.9065,2.3377,80.98,82.43,56.8,0.69,5.8,0.04,0.4,5.7,0.568,1.01
01:41:00,3.6010,0.2080,7.9106,2.3388,81.02,82.47,56.7,0.75,6.3,0.05,0.5,5.7,0.567,1.1
01:41:20,3.6140,0.2110,7.9148,2.3400,81.07,82.51,56.8,0.76,6.3,0.05,0.5,5.7,0.568,1.12
01:41:40,3.6270,0.2139,7.9191,2.3412,81.11,82.55,57.9,0.78,6.5,0.05,0.5,5.8,0.579,1.12
01:42:00,3.8030,0.7682,7.9298,2.3440,81.22,82.65,204.0,2.92,24.3,0.18,1.8,20.4,2.04,1.19
01:42:20,3.8110,0.9875,7.9485,2.3489,81.41,82.82,333.0,3.76,31.3,0.23,2.3,33.3,3.33,0.94
01:42:40,3.7840,1.0179,7.9700,2.3546,81.63,83.02,361.0,3.85,32.1,0.23,2.3,36.1,3.61,0.89
01:43:00,3.7820,1.0409,7.9921,2.3604,81.86,83.23,360.0,3.94,32.8,0.24,2.4,36.0,3.6,0.91
01:43:20,3.7770,1.0170,8.0134,2.3661,82.08,83.43,359.0,3.84,32.0,0.23,2.3,35.9,3.59,0.89
01:43:40,4.4290,0.8686,8.0349,2.3713,82.30,83.61,356.0,3.85,32.1,0.23,2.3,35.6,3.56,0.9
01:44:00,3.7700,1.0179,8.0457,2.3742,82.41,83.72,355.0,3.84,32.0,0.23,2.3,35.5,3.55,0.9
01:44:20,5.3390,0.0092,8.0564,2.3770,82.52,83.82,355.0,0.05,0.4,0.0,0.0,35.5,3.55,0.01
01:44:40,5.3300,0.2397,8.0706,2.3805,82.66,83.94,353.0,1.28,10.7,0.08,0.8,35.3,3.53,0.3
01:45:00,3.7490,1.0081,8.0916,2.3861,82.88,84.14,355.0,3.78,31.5,0.23,2.3,35.5,3.55,0.89
01:45:20,3.7470,1.0114,8.1058,2.3896,83.02,84.26,355.0,3.79,31.6,0.23,2.3,35.5,3.55,0.89
01:45:40,5.3390,0.0092,8.1150,2.3916,83.12,84.33,353.0,0.05,0.4,0.0,0.0,35.3,3.53,0.01
01:46:00,5.3390,0.0463,8.1262,2.3945,83.23,84.43,355.0,0.25,2.1,0.02,0.2,35.5,3.55,0.06
01:46:20,3.7380,1.0240,8.1482,2.4002,83.46,84.63,356.0,3.83,31.9,0.23,2.3,35.6,3.56,0.9
01:46:40,5.3390,0.0091,8.1588,2.4030,83.57,84.73,357.0,0.05,0.4,0.0,0.0,35.7,3.57,0.01
01:47:00,3.7350,1.0090,8.1798,2.4087,83.78,84.93,357.0,3.77,31.4,0.23,2.3,35.7,3.57,0.88
01:47:20,3.7290,1.0123,8.2014,2.4143,84.00,85.13,358.0,3.77,31.4,0.23,2.3,35.8,3.58,0.88
01:47:40,3.7410,1.0166,8.2121,2.4172,84.11,85.23,358.0,3.8,31.7,0.23,2.3,35.8,3.58,0.88
01:48:00,3.9120,0.9967,8.2336,2.4228,84.33,85.43,354.0,3.9,32.5,0.23,2.3,35.4,3.54,0.92
01:48:20,4.6440,0.7726,8.2524,2.4268,84.52,85.57,337.0,3.59,29.9,0.22,2.2,33.7,3.37,0.89
01:48:40,2.9800,0.6234,8.2678,2.4313,84.68,85.73,283.0,1.86,15.5,0.11,1.1,28.3,2.83,0.55
01:49:00,2.2540,0.2681,8.2720,2.4331,84.73,85.79,87.4,0.6,5.0,0.04,0.4,8.7,0.874,0.57
01:49:20,2.2640,0.2634,8.2753,2.4346,84.76,85.84,78.9,0.6,5.0,0.04,0.4,7.9,0.789,0.63
01:49:40,2.2860,0.2700,8.2787,2.4361,84.79,85.90,80.9,0.62,5.2,0.04,0.4,8.1,0.809,0.64
01:50:00,2.5290,0.4161,8.2834,2.4380,84.84,85.96,108.2,1.05,8.8,0.06,0.6,10.8,1.082,0.81
01:50:20,3.8020,1.0101,8.3003,2.4427,85.02,86.13,352.0,3.84,32.0,0.23,2.3,35.2,3.52,0.91
01:50:40,3.7910,1.0061,8.3217,2.4483,85.23,86.33,355.0,3.81,31.8,0.23,2.3,35.5,3.55,0.89
01:51:00,3.7790,1.0010,8.3428,2.4539,85.45,86.53,355.0,3.78,31.5,0.23,2.3,35.5,3.55,0.89
01:51:20,3.7770,0.9491,8.3624,2.4591,85.65,86.71,330.0,3.58,29.8,0.22,2.2,33.0,3.3,0.9
01:51:40,3.7680,0.9738,8.3830,2.4646,85.86,86.90,342.0,3.67,30.6,0.22,2.2,34.2,3.42,0.89
01:52:00,2.9310,0.5531,8.3960,2.4684,85.99,87.04,245.0,1.62,13.5,0.1,1.0,24.5,2.45,0.55
01:52:20,3.7700,0.9732,8.4127,2.4730,86.17,87.20,340.0,3.67,30.6,0.22,2.2,34.0,3.4,0.9
01:52:40,3.7620,0.5827,8.4278,2.4770,86.32,87.34,223.0,2.19,18.3,0.13,1.3,22.3,2.23,0.82
01:53:00,3.6840,0.3005,8.4350,2.4789,86.39,87.41,102.0,1.11,9.3,0.07,0.7,10.2,1.02,0.91
01:53:20,3.6660,0.2736,8.4405,2.4804,86.45,87.46,79.7,1.0,8.3,0.06,0.6,8.0,0.797,1.05
01:53:40,3.6620,0.2580,8.4462,2.4820,86.51,87.52,82.4,0.94,7.8,0.06,0.6,8.2,0.824,0.95
01:54:00,3.6570,0.2413,8.4512,2.4833,86.56,87.56,72.1,0.88,7.3,0.05,0.5,7.2,0.721,1.02
01:54:20,3.6600,0.2385,8.4560,2.4847,86.61,87.61,71.3,0.87,7.2,0.05,0.5,7.1,0.713,1.02
01:54:40,3.6620,0.2404,8.4609,2.4860,86.66,87.66,71.5,0.88,7.3,0.05,0.5,7.2,0.715,1.03
01:55:00,3.6790,0.2431,8.4658,2.4873,86.71,87.70,72.5,0.89,7.4,0.05,0.5,7.3,0.725,1.02
01:55:20,3.6940,0.2714,8.4711,2.4888,86.76,87.76,75.9,1.0,8.3,0.06,0.6,7.6,0.759,1.1
01:55:40,3.7850,0.4195,8.4799,2.4911,86.85,87.84,144.3,1.59,13.3,0.1,1.0,14.4,1.443,0.92
01:56:00,3.8700,0.9443,8.4979,2.4958,87.04,88.00,333.0,3.65,30.4,0.22,2.2,33.3,3.33,0.91
01:56:20,3.8510,0.9431,8.5182,2.5010,87.25,88.19,332.0,3.63,30.3,0.22,2.2,33.2,3.32,0.91
01:56:40,3.8330,0.9387,8.5381,2.5062,87.45,88.37,330.0,3.6,30.0,0.22,2.2,33.0,3.3,0.91
01:57:00,3.8210,0.9382,8.5580,2.5114,87.65,88.55,330.0,3.58,29.8,0.22,2.2,33.0,3.3,0.9
01:57:20,3.8080,0.9391,8.5680,2.5140,87.76,88.65,326.0,3.58,29.8,0.22,2.2,32.6,3.26,0.92
01:57:40,3.8100,0.9113,8.5778,2.5166,87.86,88.74,323.0,3.47,28.9,0.21,2.1,32.3,3.23,0.9
01:58:00,5.3400,0.0093,8.5876,2.5192,87.96,88.83,321.0,0.05,0.4,0.0,0.0,32.1,3.21,0.01
01:58:20,5.3400,0.0091,8.5951,2.5207,88.03,88.88,317.0,0.05,0.4,0.0,0.0,31.7,3.17,0.01
01:58:40,3.7710,0.8950,8.6138,2.5257,88.23,89.06,314.0,3.38,28.2,0.2,2.0,31.4,3.14,0.9
01:59:00,3.7940,0.8921,8.6326,2.5306,88.42,89.23,311.0,3.38,28.2,0.2,2.0,31.1,3.11,0.91
01:59:20,3.7900,0.8849,8.6420,2.5331,88.52,89.32,309.0,3.35,27.9,0.2,2.0,30.9,3.09,0.9
01:59:40,3.7880,0.8769,8.6605,2.5380,88.70,89.49,309.0,3.32,27.7,0.2,2.0,30.9,3.09,0.9
02:00:00,3.7860,0.8693,8.6789,2.5428,88.89,89.66,304.0,3.29,27.4,0.2,2.0,30.4,3.04,0.9
02:00:20,3.7830,0.8658,8.6971,2.5476,89.08,89.83,302.0,3.28,27.3,0.2,2.0,30.2,3.02,0.91
02:00:40,3.7810,0.8701,8.7153,2.5525,89.27,90.00,302.0,3.29,27.4,0.2,2.0,30.2,3.02,0.91
02:01:00,3.7840,0.8585,8.7335,2.5573,89.45,90.17,299.0,3.25,27.1,0.2,2.0,29.9,2.99,0.91
02:01:20,3.7820,0.8691,8.7517,2.5621,89.64,90.34,301.0,3.29,27.4,0.2,2.0,30.1,3.01,0.91
02:01:40,3.7810,0.8725,8.7700,2.5669,89.83,90.51,303.0,3.3,27.5,0.2,2.0,30.3,3.03,0.91
02:02:00,3.7790,0.8775,8.7884,2.5718,90.01,90.68,304.0,3.32,27.7,0.2,2.0,30.4,3.04,0.91
02:02:20,3.7750,0.7639,8.8053,2.5763,90.19,90.84,271.0,2.88,24.0,0.17,1.7,27.1,2.71,0.89
02:02:40,3.7230,0.4859,8.8184,2.5798,90.32,90.96,190.5,1.81,15.1,0.11,1.1,19.1,1.905,0.79
02:03:00,2.4070,0.3129,8.8291,2.5829,90.43,91.07,169.0,0.75,6.3,0.05,0.5,16.9,1.69,0.37
02:03:20,2.2660,0.2163,8.8320,2.5842,90.46,91.12,58.4,0.49,4.1,0.03,0.3,5.8,0.584,0.7
02:03:40,2.2890,0.2151,8.8347,2.5854,90.49,91.16,58.0,0.49,4.1,0.03,0.3,5.8,0.58,0.7
02:04:00,2.2890,0.2175,8.8375,2.5866,90.52,91.20,58.7,0.5,4.2,0.03,0.3,5.9,0.587,0.71
02:04:20,2.2870,0.2183,8.8403,2.5878,90.55,91.25,59.4,0.5,4.2,0.03,0.3,5.9,0.594,0.7
02:04:40,3.6660,0.6546,8.8492,2.5905,90.64,91.34,235.0,2.4,20.0,0.14,1.4,23.5,2.35,0.85
02:05:00,2.4760,0.3358,8.8565,2.5930,90.71,91.43,128.9,0.83,6.9,0.05,0.5,12.9,1.289,0.54
02:05:20,2.2960,0.2082,8.8592,2.5942,90.74,91.47,56.5,0.48,4.0,0.03,0.3,5.7,0.565,0.71
02:05:40,2.3870,0.2041,8.8619,2.5953,90.77,91.51,54.2,0.49,4.1,0.03,0.3,5.4,0.542,0.75
02:06:00,2.8610,0.2689,8.8655,2.5966,90.80,91.56,68.8,0.77,6.4,0.05,0.5,6.9,0.688,0.93
02:06:20,3.8710,0.7035,8.8774,2.5997,90.93,91.67,229.0,2.72,22.7,0.16,1.6,22.9,2.29,0.99
02:06:40,3.8440,0.7927,8.8943,2.6041,91.10,91.82,284.0,3.05,25.4,0.18,1.8,28.4,2.84,0.89
02:07:00,3.6360,0.7494,8.9099,2.6083,91.26,91.97,286.0,2.72,22.7,0.16,1.6,28.6,2.86,0.79
02:07:20,3.3990,0.7028,8.9238,2.6123,91.40,92.11,280.0,2.39,19.9,0.14,1.4,28.0,2.8,0.71
02:07:40,2.4010,0.3621,8.9306,2.6149,91.47,92.20,150.4,0.87,7.2,0.05,0.5,15.0,1.504,0.48
02:08:00,2.5830,0.4489,8.9359,2.6170,91.53,92.28,152.7,1.16,9.7,0.07,0.7,15.3,1.527,0.63
02:08:20,2.7880,0.4942,8.9428,2.6196,91.60,92.37,169.1,1.38,11.5,0.08,0.8,16.9,1.691,0.68
02:08:40,2.8200,0.3813,8.9497,2.6220,91.67,92.45,145.2,1.08,9.0,0.06,0.6,14.5,1.452,0.62
02:09:00,3.8550,0.7349,8.9626,2.6254,91.80,92.57,233.0,2.83,23.6,0.17,1.7,23.3,2.33,1.01
02:09:20,3.8510,0.7785,8.9792,2.6297,91.97,92.72,272.0,3.0,25.0,0.18,1.8,27.2,2.72,0.92
02:09:40,3.8080,0.5133,8.9924,2.6331,92.10,92.84,185.5,1.95,16.3,0.12,1.2,18.6,1.855,0.88
02:10:00,3.7760,0.3978,9.0044,2.6363,92.23,92.96,187.0,1.5,12.5,0.09,0.9,18.7,1.87,0.67
02:10:20,3.6900,0.2972,9.0101,2.6378,92.29,93.01,108.4,1.1,9.2,0.07,0.7,10.8,1.084,0.85
02:10:40,3.5850,0.1656,9.0136,2.6388,92.32,93.04,46.7,0.59,4.9,0.04,0.4,4.7,0.467,1.05
02:11:00,3.5750,0.1573,9.0167,2.6397,92.35,93.08,43.8,0.56,4.7,0.03,0.3,4.4,0.438,1.07
02:11:20,3.5760,0.1528,9.0198,2.6405,92.38,93.11,42.0,0.55,4.6,0.03,0.3,4.2,0.42,1.09
02:11:40,3.5690,0.1492,9.0228,2.6413,92.41,93.14,40.1,0.53,4.4,0.03,0.3,4.0,0.401,1.1
02:12:00,3.5720,0.1490,9.0257,2.6422,92.45,93.16,40.9,0.53,4.4,0.03,0.3,4.1,0.409,1.08
02:12:20,3.5650,0.1463,9.0286,2.6430,92.47,93.19,39.5,0.52,4.3,0.03,0.3,4.0,0.395,1.1
02:12:40,3.5730,0.1445,9.0315,2.6438,92.50,93.22,38.8,0.52,4.3,0.03,0.3,3.9,0.388,1.12
02:13:00,3.5780,0.1430,9.0344,2.6446,92.53,93.25,38.0,0.51,4.3,0.03,0.3,3.8,0.38,1.12
02:13:20,3.5820,0.1442,9.0372,2.6454,92.56,93.28,38.5,0.52,4.3,0.03,0.3,3.9,0.385,1.13
02:13:40,3.5900,0.1473,9.0401,2.6462,92.59,93.31,40.0,0.53,4.4,0.03,0.3,4.0,0.4,1.1
02:14:00,3.6130,0.1593,9.0432,2.6471,92.62,93.34,40.9,0.58,4.8,0.03,0.3,4.1,0.409,1.18
02:14:20,3.9180,0.7172,9.0560,2.6503,92.75,93.45,236.0,2.81,23.4,0.17,1.7,23.6,2.36,0.99
02:14:40,3.9170,0.7317,9.0719,2.6544,92.92,93.60,260.0,2.87,23.9,0.17,1.7,26.0,2.6,0.92
02:15:00,3.9060,0.7404,9.0879,2.6585,93.08,93.74,260.0,2.89,24.1,0.17,1.7,26.0,2.6,0.93
02:15:20,3.8980,0.7397,9.1040,2.6626,93.25,93.89,260.0,2.88,24.0,0.17,1.7,26.0,2.6,0.92
02:15:40,3.8890,0.7340,9.1199,2.6667,93.41,94.03,260.0,2.85,23.8,0.17,1.7,26.0,2.6,0.91
02:16:00,3.8850,0.7347,9.1357,2.6708,93.57,94.17,258.0,2.85,23.8,0.17,1.7,25.8,2.58,0.92
02:16:20,3.8730,0.7263,9.1515,2.6748,93.73,94.32,256.0,2.81,23.4,0.17,1.7,25.6,2.56,0.91
02:16:40,3.8680,0.7277,9.1671,2.6789,93.89,94.46,256.0,2.81,23.4,0.17,1.7,25.6,2.56,0.91
02:17:00,3.8590,0.7236,9.1826,2.6829,94.05,94.60,253.0,2.79,23.3,0.17,1.7,25.3,2.53,0.92
02:17:20,3.8550,0.7167,9.1979,2.6869,94.21,94.74,252.0,2.76,23.0,0.17,1.7,25.2,2.52,0.91
02:17:40,3.8420,0.7131,9.2132,2.6908,94.37,94.88,251.0,2.74,22.8,0.16,1.6,25.1,2.51,0.91
02:18:00,3.8490,0.7036,9.2283,2.6948,94.52,95.02,248.0,2.71,22.6,0.16,1.6,24.8,2.48,0.91
02:18:20,3.8420,0.7002,9.2433,2.6987,94.67,95.16,246.0,2.69,22.4,0.16,1.6,24.6,2.46,0.91
02:18:40,3.8350,0.6961,9.2581,2.7025,94.83,95.29,244.0,2.67,22.3,0.16,1.6,24.4,2.44,0.91
02:19:00,3.8330,0.6883,9.2728,2.7064,94.98,95.43,242.0,2.64,22.0,0.16,1.6,24.2,2.42,0.91
02:19:20,3.8310,0.6860,9.2875,2.7102,95.13,95.56,242.0,2.63,21.9,0.16,1.6,24.2,2.42,0.91
02:19:40,3.8160,0.6847,9.3021,2.7140,95.28,95.70,240.0,2.61,21.8,0.16,1.6,24.0,2.4,0.91
02:20:00,3.8250,0.6773,9.3165,2.7178,95.42,95.83,240.0,2.59,21.6,0.16,1.6,24.0,2.4,0.9
02:20:20,3.8160,0.6753,9.3308,2.7215,95.57,95.96,238.0,2.58,21.5,0.16,1.6,23.8,2.38,0.9
02:20:40,3.8020,0.6721,9.3452,2.7253,95.72,96.10,238.0,2.56,21.3,0.15,1.5,23.8,2.38,0.9
02:21:00,3.8200,0.6803,9.3595,2.7291,95.86,96.23,235.0,2.6,21.7,0.16,1.6,23.5,2.35,0.92
02:21:20,3.8130,0.6713,9.3738,2.7328,96.01,96.36,236.0,2.56,21.3,0.15,1.5,23.6,2.36,0.9
02:21:40,3.8130,0.6655,9.3879,2.7365,96.15,96.49,236.0,2.54,21.2,0.15,1.5,23.6,2.36,0.9
02:22:00,3.8110,0.6642,9.4019,2.7402,96.30,96.62,234.0,2.53,21.1,0.15,1.5,23.4,2.34,0.9
02:22:20,3.8000,0.6624,9.4160,2.7439,96.44,96.75,233.0,2.52,21.0,0.15,1.5,23.3,2.33,0.9
02:22:40,3.7910,0.6632,9.4299,2.7476,96.59,96.88,233.0,2.51,20.9,0.15,1.5,23.3,2.33,0.9
02:23:00,3.8050,0.6508,9.4437,2.7512,96.73,97.01,230.0,2.48,20.7,0.15,1.5,23.0,2.3,0.9
02:23:20,3.7900,0.6565,9.4575,2.7548,96.87,97.14,228.0,2.49,20.8,0.15,1.5,22.8,2.28,0.91
02:23:40,3.7930,0.6506,9.4712,2.7584,97.01,97.26,228.0,2.47,20.6,0.15,1.5,22.8,2.28,0.9
02:24:00,3.7990,0.6447,9.4847,2.7620,97.15,97.39,227.0,2.45,20.4,0.15,1.5,22.7,2.27,0.9
02:24:20,3.7910,0.6328,9.4982,2.7655,97.28,97.51,224.0,2.4,20.0,0.14,1.4,22.4,2.24,0.89
02:24:40,3.7920,0.6341,9.5115,2.7691,97.42,97.64,223.0,2.4,20.0,0.14,1.4,22.3,2.23,0.9
02:25:00,3.7940,0.6185,9.5246,2.7725,97.56,97.76,220.0,2.35,19.6,0.14,1.4,22.0,2.2,0.89
02:25:20,3.8020,0.6219,9.5377,2.7760,97.69,97.88,217.0,2.36,19.7,0.14,1.4,21.7,2.17,0.91
02:25:40,3.8000,0.6151,9.5507,2.7794,97.82,98.00,216.0,2.34,19.5,0.14,1.4,21.6,2.16,0.9
02:26:00,3.7910,0.6124,9.5637,2.7828,97.95,98.12,215.0,2.32,19.3,0.14,1.4,21.5,2.15,0.9
02:26:20,3.7990,0.6067,9.5765,2.7862,98.09,98.24,213.0,2.3,19.2,0.14,1.4,21.3,2.13,0.9
02:26:40,3.7900,0.6054,9.5892,2.7895,98.22,98.36,213.0,2.29,19.1,0.14,1.4,21.3,2.13,0.9
02:27:00,3.7970,0.6035,9.6019,2.7929,98.35,98.48,211.0,2.29,19.1,0.14,1.4,21.1,2.11,0.9
02:27:20,3.7980,0.6014,9.6146,2.7962,98.48,98.60,210.0,2.28,19.0,0.14,1.4,21.0,2.1,0.9
02:27:40,3.7980,0.5931,9.6272,2.7995,98.61,98.71,208.0,2.25,18.8,0.14,1.4,20.8,2.08,0.9
02:28:00,3.7940,0.5859,9.6395,2.8028,98.73,98.83,205.0,2.22,18.5,0.13,1.3,20.5,2.05,0.9
02:28:20,3.7840,0.5810,9.6517,2.8060,98.86,98.94,204.0,2.2,18.3,0.13,1.3,20.4,2.04,0.9
02:28:40,3.7900,0.5639,9.6637,2.8091,98.98,99.05,204.0,2.14,17.8,0.13,1.3,20.4,2.04,0.87
02:29:00,3.7930,0.5643,9.6756,2.8123,99.10,99.16,200.0,2.14,17.8,0.13,1.3,20.0,2.0,0.89
02:29:20,3.7640,0.4878,9.6866,2.8152,99.21,99.27,179.5,1.84,15.3,0.11,1.1,18.0,1.795,0.85
02:29:40,3.7120,0.3119,9.6942,2.8172,99.29,99.34,116.3,1.16,9.7,0.07,0.7,11.6,1.163,0.83
02:30:00,3.7620,0.4105,9.7019,2.8193,99.37,99.41,133.1,1.54,12.8,0.09,0.9,13.3,1.331,0.96
02:30:20,3.7800,0.4093,9.7112,2.8218,99.47,99.50,155.6,1.55,12.9,0.09,0.9,15.6,1.556,0.83
02:30:40,3.7380,0.3605,9.7184,2.8237,99.54,99.56,117.8,1.35,11.3,0.08,0.8,11.8,1.178,0.96
02:31:00,3.7210,0.2890,9.7248,2.8254,99.61,99.62,100.4,1.08,9.0,0.06,0.6,10.0,1.004,0.9
02:31:20,3.5940,0.1708,9.7284,2.8264,99.64,99.66,46.0,0.61,5.1,0.04,0.4,4.6,0.46,1.11
02:31:40,3.6060,0.1681,9.7319,2.8273,99.68,99.69,49.7,0.61,5.1,0.04,0.4,5.0,0.497,1.02
02:32:00,3.5860,0.1596,9.7351,2.8282,99.71,99.72,44.6,0.57,4.7,0.03,0.3,4.5,0.446,1.07
02:32:20,3.6190,0.1738,9.7384,2.8292,99.74,99.76,46.5,0.63,5.3,0.04,0.4,4.7,0.465,1.13
02:32:40,3.6000,0.1573,9.7423,2.8302,99.78,99.79,46.0,0.57,4.7,0.03,0.3,4.6,0.46,1.03
02:33:00,3.5930,0.1548,9.7454,2.8311,99.82,99.83,43.7,0.56,4.7,0.03,0.3,4.4,0.437,1.07
02:33:20,3.6020,0.1560,9.7485,2.8319,99.85,99.86,44.0,0.56,4.7,0.03,0.3,4.4,0.44,1.06
02:33:40,3.6050,0.1569,9.7517,2.8328,99.88,99.89,44.8,0.57,4.7,0.03,0.3,4.5,0.448,1.06
02:34:00,3.6140,0.1605,9.7549,2.8337,99.91,99.92,46.1,0.58,4.8,0.03,0.3,4.6,0.461,1.05
02:34:20,3.6250,0.1658,9.7582,2.8346,99.95,99.95,48.2,0.6,5.0,0.04,0.4,4.8,0.482,1.04
02:34:40,3.6350,0.1690,9.7616,2.8356,99.98,99.98,49.6,0.61,5.1,0.04,0.4,5.0,0.496,1.02
02:35:00,3.7390,0.2430,9.7659,2.8367,100.03,100.02,58.7,0.91,7.6,0.05,0.5,5.9,0.587,1.29