File: output/5/solarcamp-1.csv
Time,Voltage(V),Current(A),Energy(Wh),Capacity(Ah),Energy Proportion(%),Capacity Proportion(%),Irradiance(W/m2),Power(W),Power Score,Watts/oz,cW/oz,Sun Score,Irradiance/100,Efficiency(%)
00:00:00,2.7040,0.6312,0.0047,0.0018,0.69,0.85,804.0,1.71,17.1,0.18,1.8,80.4,8.04,0.16
00:00:10,2.7060,0.6258,0.0094,0.0035,1.37,1.68,806.0,1.69,16.9,0.18,1.8,80.6,8.06,0.16
00:00:20,5.1440,0.0093,0.0096,0.0035,1.39,1.70,807.0,0.05,0.5,0.01,0.1,80.7,8.07,0.0
00:00:30,5.1450,0.0092,0.0097,0.0035,1.41,1.71,805.0,0.05,0.5,0.01,0.1,80.5,8.05,0.0
00:00:40,5.1450,0.0092,0.0098,0.0036,1.43,1.72,801.0,0.05,0.5,0.01,0.1,80.1,8.01,0.0
00:00:50,5.1450,0.0092,0.0100,0.0036,1.45,1.73,799.0,0.05,0.5,0.01,0.1,79.9,7.99,0.0
00:01:00,5.1450,0.0092,0.0101,0.0036,1.47,1.74,797.0,0.05,0.5,0.01,0.1,79.7,7.97,0.0
00:01:10,5.1450,0.0092,0.0102,0.0036,1.49,1.76,798.0,0.05,0.5,0.01,0.1,79.8,7.98,0.0
00:01:20,5.1460,0.0092,0.0104,0.0037,1.51,1.77,797.0,0.05,0.5,0.01,0.1,79.7,7.97,0.0
00:01:30,5.1460,0.0092,0.0105,0.0037,1.52,1.78,798.0,0.05,0.5,0.01,0.1,79.8,7.98,0.0
00:01:40,4.3680,0.3551,0.0148,0.0047,2.15,2.26,792.0,1.55,15.5,0.16,1.6,79.2,7.92,0.15
00:01:50,5.1460,0.0092,0.0149,0.0047,2.17,2.27,789.0,0.05,0.5,0.01,0.1,78.9,7.89,0.0
00:02:00,5.1440,0.1953,0.0177,0.0053,2.57,2.53,787.0,1.0,10.0,0.11,1.1,78.7,7.87,0.1
00:02:10,5.1460,0.0093,0.0179,0.0053,2.59,2.54,784.0,0.05,0.5,0.01,0.1,78.4,7.84,0.0
00:02:20,4.2040,0.4019,0.0226,0.0064,3.28,3.08,789.0,1.69,16.9,0.18,1.8,78.9,7.89,0.16
00:02:30,5.1460,0.0092,0.0227,0.0064,3.29,3.09,782.0,0.05,0.5,0.01,0.1,78.2,7.82,0.0
00:02:40,5.1460,0.0093,0.0228,0.0064,3.31,3.11,781.0,0.05,0.5,0.01,0.1,78.1,7.81,0.0
00:02:50,5.1470,0.0089,0.0229,0.0065,3.33,3.12,780.0,0.05,0.5,0.01,0.1,78.0,7.8,0.0
00:03:00,4.9640,0.2347,0.0262,0.0071,3.80,3.43,776.0,1.17,11.7,0.12,1.2,77.6,7.76,0.11
00:03:10,5.1470,0.0093,0.0263,0.0071,3.82,3.45,781.0,0.05,0.5,0.01,0.1,78.1,7.81,0.0
00:03:20,5.1470,0.0092,0.0264,0.0072,3.84,3.46,781.0,0.05,0.5,0.01,0.1,78.1,7.81,0.0
00:03:30,5.1470,0.0091,0.0266,0.0072,3.86,3.47,780.0,0.05,0.5,0.01,0.1,78.0,7.8,0.0
00:03:40,5.1470,0.0093,0.0267,0.0072,3.88,3.48,778.0,0.05,0.5,0.01,0.1,77.8,7.78,0.0
00:03:50,5.1470,0.0092,0.0268,0.0072,3.90,3.49,776.0,0.05,0.5,0.01,0.1,77.6,7.76,0.0
00:04:00,5.1470,0.0090,0.0270,0.0073,3.92,3.51,777.0,0.05,0.5,0.01,0.1,77.7,7.77,0.0
00:04:10,5.1470,0.0092,0.0271,0.0073,3.94,3.52,776.0,0.05,0.5,0.01,0.1,77.6,7.76,0.0
00:04:20,3.5350,0.5105,0.0321,0.0087,4.66,4.20,776.0,1.8,18.0,0.19,1.9,77.6,7.76,0.17
00:04:30,5.1470,0.0092,0.0322,0.0087,4.68,4.21,772.0,0.05,0.5,0.01,0.1,77.2,7.72,0.0
00:04:40,5.1470,0.0601,0.0331,0.0089,4.81,4.30,770.0,0.31,3.1,0.03,0.3,77.0,7.7,0.03
00:04:50,5.1480,0.0092,0.0332,0.0089,4.83,4.31,765.0,0.05,0.5,0.01,0.1,76.5,7.65,0.0
00:05:00,5.1480,0.0092,0.0334,0.0090,4.85,4.32,763.0,0.05,0.5,0.01,0.1,76.3,7.63,0.0
00:05:10,5.1440,0.0088,0.0335,0.0090,4.86,4.33,766.0,0.05,0.5,0.01,0.1,76.6,7.66,0.0
00:05:20,5.1480,0.0092,0.0336,0.0090,4.88,4.34,766.0,0.05,0.5,0.01,0.1,76.6,7.66,0.0
00:05:30,2.6770,0.4975,0.0373,0.0104,5.42,5.01,766.0,1.33,13.3,0.14,1.4,76.6,7.66,0.13
00:05:40,5.1480,0.0092,0.0375,0.0104,5.44,5.02,766.0,0.05,0.5,0.01,0.1,76.6,7.66,0.0
00:05:50,5.1490,0.0092,0.0376,0.0104,5.46,5.04,767.0,0.05,0.5,0.01,0.1,76.7,7.67,0.0
00:06:00,5.1490,0.0093,0.0377,0.0105,5.48,5.05,767.0,0.05,0.5,0.01,0.1,76.7,7.67,0.0
00:06:10,5.1490,0.0092,0.0379,0.0105,5.50,5.06,767.0,0.05,0.5,0.01,0.1,76.7,7.67,0.0
00:06:20,5.1490,0.0093,0.0380,0.0105,5.52,5.07,767.0,0.05,0.5,0.01,0.1,76.7,7.67,0.0
00:06:30,3.4630,0.3838,0.0417,0.0116,6.05,5.59,772.0,1.33,13.3,0.14,1.4,77.2,7.72,0.13
00:06:40,4.9060,0.0888,0.0429,0.0118,6.23,5.71,770.0,0.44,4.4,0.05,0.5,77.0,7.7,0.04
00:06:50,4.0850,0.3733,0.0471,0.0129,6.84,6.21,771.0,1.52,15.2,0.16,1.6,77.1,7.71,0.15
00:07:00,5.1490,0.0092,0.0473,0.0129,6.86,6.22,770.0,0.05,0.5,0.01,0.1,77.0,7.7,0.0
00:07:10,5.1440,0.0150,0.0475,0.0129,6.89,6.24,768.0,0.08,0.8,0.01,0.1,76.8,7.68,0.01
00:07:20,5.1490,0.0092,0.0476,0.0130,6.91,6.25,769.0,0.05,0.5,0.01,0.1,76.9,7.69,0.0
00:07:30,5.1490,0.0092,0.0477,0.0130,6.93,6.26,768.0,0.05,0.5,0.01,0.1,76.8,7.68,0.0
00:07:40,4.2020,0.3544,0.0519,0.0140,7.53,6.74,768.0,1.49,14.9,0.16,1.6,76.8,7.68,0.15
00:07:50,5.1490,0.0089,0.0520,0.0140,7.55,6.75,771.0,0.05,0.5,0.01,0.1,77.1,7.71,0.0
00:08:00,5.1490,0.0092,0.0521,0.0140,7.57,6.76,770.0,0.05,0.5,0.01,0.1,77.0,7.7,0.0
00:08:10,5.1490,0.0092,0.0523,0.0141,7.59,6.77,766.0,0.05,0.5,0.01,0.1,76.6,7.66,0.0
00:08:20,5.1490,0.0092,0.0524,0.0141,7.61,6.79,770.0,0.05,0.5,0.01,0.1,77.0,7.7,0.0
00:08:30,5.1490,0.0092,0.0525,0.0141,7.63,6.80,766.0,0.05,0.5,0.01,0.1,76.6,7.66,0.0
00:08:40,5.1490,0.0092,0.0527,0.0141,7.65,6.81,768.0,0.05,0.5,0.01,0.1,76.8,7.68,0.0
00:08:50,5.1490,0.0093,0.0528,0.0142,7.67,6.82,771.0,0.05,0.5,0.01,0.1,77.1,7.71,0.0
00:09:00,5.1490,0.0091,0.0529,0.0142,7.68,6.83,772.0,0.05,0.5,0.01,0.1,77.2,7.72,0.0
00:09:10,5.1490,0.0093,0.0531,0.0142,7.70,6.85,772.0,0.05,0.5,0.01,0.1,77.2,7.72,0.0
00:09:20,5.1490,0.0093,0.0532,0.0142,7.72,6.86,772.0,0.05,0.5,0.01,0.1,77.2,7.72,0.0
00:09:30,4.5180,0.1646,0.0553,0.0147,8.02,7.08,765.0,0.74,7.4,0.08,0.8,76.5,7.65,0.07
00:09:40,3.6170,0.4163,0.0594,0.0158,8.63,7.64,763.0,1.51,15.1,0.16,1.6,76.3,7.63,0.15
00:09:50,5.1480,0.0784,0.0606,0.0161,8.79,7.74,783.0,0.4,4.0,0.04,0.4,78.3,7.83,0.04
00:10:00,5.1490,0.0093,0.0607,0.0161,8.81,7.76,783.0,0.05,0.5,0.01,0.1,78.3,7.83,0.0
00:10:10,5.1500,0.0092,0.0608,0.0161,8.83,7.77,787.0,0.05,0.5,0.01,0.1,78.7,7.87,0.0
00:10:20,4.8820,0.1736,0.0632,0.0166,9.17,8.00,789.0,0.85,8.5,0.09,0.9,78.9,7.89,0.08
00:10:30,5.1500,0.0093,0.0633,0.0166,9.19,8.01,794.0,0.05,0.5,0.01,0.1,79.4,7.94,0.0
00:10:40,5.1500,0.0092,0.0634,0.0166,9.21,8.02,797.0,0.05,0.5,0.01,0.1,79.7,7.97,0.0
00:10:50,5.1500,0.0093,0.0636,0.0167,9.23,8.04,796.0,0.05,0.5,0.01,0.1,79.6,7.96,0.0
00:11:00,5.1500,0.0091,0.0637,0.0167,9.25,8.05,796.0,0.05,0.5,0.01,0.1,79.6,7.96,0.0
00:11:10,5.1500,0.0093,0.0638,0.0167,9.27,8.06,800.0,0.05,0.5,0.01,0.1,80.0,8.0,0.0
00:11:20,4.7980,0.1188,0.0654,0.0171,9.50,8.22,797.0,0.57,5.7,0.06,0.6,79.7,7.97,0.05
00:11:30,4.2360,0.3140,0.0691,0.0179,10.04,8.64,802.0,1.33,13.3,0.14,1.4,80.2,8.02,0.12
00:11:40,5.1490,0.0531,0.0699,0.0181,10.15,8.71,800.0,0.27,2.7,0.03,0.3,80.0,8.0,0.03
00:11:50,5.1500,0.0092,0.0700,0.0181,10.17,8.72,792.0,0.05,0.5,0.01,0.1,79.2,7.92,0.0
00:12:00,5.1500,0.0092,0.0701,0.0181,10.18,8.74,688.0,0.05,0.5,0.01,0.1,68.8,6.88,0.01
00:12:10,4.1580,0.2270,0.0728,0.0188,10.57,9.04,797.0,0.94,9.4,0.1,1.0,79.7,7.97,0.09
00:12:20,3.9110,0.3456,0.0765,0.0197,11.11,9.50,782.0,1.35,13.5,0.14,1.4,78.2,7.82,0.13
00:12:30,5.1500,0.0093,0.0766,0.0197,11.13,9.52,674.0,0.05,0.5,0.01,0.1,67.4,6.74,0.01
00:12:40,5.1500,0.0092,0.0768,0.0198,11.15,9.53,761.0,0.05,0.5,0.01,0.1,76.1,7.61,0.0
00:12:50,5.1500,0.0093,0.0769,0.0198,11.17,9.54,765.0,0.05,0.5,0.01,0.1,76.5,7.65,0.0
00:13:00,5.1500,0.0092,0.0770,0.0198,11.19,9.55,336.0,0.05,0.5,0.01,0.1,33.6,3.36,0.01
00:13:10,5.1500,0.0093,0.0772,0.0198,11.21,9.57,179.5,0.05,0.5,0.01,0.1,18.0,1.795,0.02
00:13:20,4.0830,0.2110,0.0796,0.0204,11.55,9.85,202.0,0.86,8.6,0.09,0.9,20.2,2.02,0.32
00:13:30,5.1480,0.0320,0.0800,0.0205,11.62,9.89,285.0,0.16,1.6,0.02,0.2,28.5,2.85,0.04
00:13:40,4.1910,0.2863,0.0834,0.0213,12.10,10.27,646.0,1.2,12.0,0.13,1.3,64.6,6.46,0.14
00:13:50,3.8190,0.3423,0.0870,0.0223,12.63,10.73,334.0,1.31,13.1,0.14,1.4,33.4,3.34,0.29
00:14:00,4.6110,0.1097,0.0884,0.0226,12.84,10.88,381.0,0.51,5.1,0.05,0.5,38.1,3.81,0.1
00:14:10,4.1980,0.2807,0.0917,0.0233,13.31,11.26,756.0,1.18,11.8,0.13,1.3,75.6,7.56,0.12
00:14:20,4.6040,0.1304,0.0933,0.0237,13.55,11.43,634.0,0.6,6.0,0.06,0.6,63.4,6.34,0.07
00:14:30,5.1500,0.0093,0.0935,0.0237,13.57,11.44,781.0,0.05,0.5,0.01,0.1,78.1,7.81,0.0
00:14:40,5.1500,0.0092,0.0936,0.0238,13.59,11.46,788.0,0.05,0.5,0.01,0.1,78.8,7.88,0.0
00:14:50,5.1500,0.0093,0.0937,0.0238,13.61,11.47,716.0,0.05,0.5,0.01,0.1,71.6,7.16,0.01
00:15:00,5.1500,0.0091,0.0939,0.0238,13.63,11.48,758.0,0.05,0.5,0.01,0.1,75.8,7.58,0.0
00:15:10,3.9860,0.2680,0.0968,0.0246,14.06,11.84,666.0,1.07,10.7,0.11,1.1,66.6,6.66,0.12
00:15:20,4.9500,0.1665,0.0991,0.0250,14.39,12.06,763.0,0.82,8.2,0.09,0.9,76.3,7.63,0.08
00:15:30,4.2600,0.2767,0.1024,0.0258,14.87,12.43,576.0,1.18,11.8,0.13,1.3,57.6,5.76,0.15
00:15:40,5.1500,0.0091,0.1025,0.0258,14.89,12.44,666.0,0.05,0.5,0.01,0.1,66.6,6.66,0.01
00:15:50,5.1500,0.0093,0.1027,0.0258,14.91,12.46,535.0,0.05,0.5,0.01,0.1,53.5,5.35,0.01
00:16:00,5.1470,0.0303,0.1031,0.0259,14.97,12.50,212.0,0.16,1.6,0.02,0.2,21.2,2.12,0.06
00:16:10,4.0910,0.2439,0.1059,0.0266,15.37,12.82,177.4,1.0,10.0,0.11,1.1,17.7,1.774,0.42
00:16:20,5.1500,0.0093,0.1060,0.0266,15.39,12.84,176.4,0.05,0.5,0.01,0.1,17.6,1.764,0.02
00:16:30,5.1510,0.0090,0.1061,0.0267,15.41,12.85,176.6,0.05,0.5,0.01,0.1,17.7,1.766,0.02
00:16:40,4.2370,0.1809,0.1083,0.0272,15.72,13.09,192.5,0.77,7.7,0.08,0.8,19.3,1.925,0.3
00:16:50,4.0110,0.3252,0.1119,0.0281,16.25,13.53,201.0,1.3,13.0,0.14,1.4,20.1,2.01,0.49
00:17:00,5.1500,0.0222,0.1122,0.0281,16.29,13.56,248.0,0.11,1.1,0.01,0.1,24.8,2.48,0.03
00:17:10,5.1500,0.0373,0.1127,0.0282,16.37,13.61,408.0,0.19,1.9,0.02,0.2,40.8,4.08,0.04
00:17:20,4.1280,0.3174,0.1164,0.0291,16.90,14.03,561.0,1.31,13.1,0.14,1.4,56.1,5.61,0.18
00:17:30,4.8450,0.1915,0.1189,0.0296,17.27,14.29,700.0,0.93,9.3,0.1,1.0,70.0,7.0,0.1
00:17:40,5.1500,0.0192,0.1192,0.0297,17.31,14.31,379.0,0.1,1.0,0.01,0.1,37.9,3.79,0.02
00:17:50,5.1500,0.0092,0.1194,0.0297,17.33,14.33,392.0,0.05,0.5,0.01,0.1,39.2,3.92,0.01
00:18:00,5.1500,0.0092,0.1195,0.0297,17.35,14.34,246.0,0.05,0.5,0.01,0.1,24.6,2.46,0.02
00:18:10,5.1500,0.0093,0.1196,0.0298,17.37,14.35,167.5,0.05,0.5,0.01,0.1,16.8,1.675,0.02
00:18:20,5.1500,0.0092,0.1197,0.0298,17.39,14.36,152.1,0.05,0.5,0.01,0.1,15.2,1.521,0.02
00:18:30,5.1500,0.0093,0.1199,0.0298,17.41,14.37,154.3,0.05,0.5,0.01,0.1,15.4,1.543,0.02
00:18:40,5.1500,0.0092,0.1200,0.0298,17.43,14.39,160.8,0.05,0.5,0.01,0.1,16.1,1.608,0.02
00:18:50,5.1500,0.0093,0.1201,0.0299,17.45,14.40,164.3,0.05,0.5,0.01,0.1,16.4,1.643,0.02
00:19:00,5.1500,0.0093,0.1203,0.0299,17.47,14.41,161.5,0.05,0.5,0.01,0.1,16.2,1.615,0.02
00:19:10,5.1500,0.0090,0.1204,0.0299,17.48,14.42,145.4,0.05,0.5,0.01,0.1,14.5,1.454,0.03
00:19:20,4.1650,0.1657,0.1223,0.0304,17.76,14.65,145.1,0.69,6.9,0.07,0.7,14.5,1.451,0.36
00:19:30,3.4460,0.3508,0.1257,0.0314,18.25,15.12,147.1,1.21,12.1,0.13,1.3,14.7,1.471,0.62
00:19:40,5.1500,0.0093,0.1258,0.0314,18.27,15.13,146.3,0.05,0.5,0.01,0.1,14.6,1.463,0.03
00:19:50,5.1500,0.0088,0.1259,0.0314,18.29,15.14,145.9,0.05,0.5,0.01,0.1,14.6,1.459,0.03
00:20:00,5.1500,0.0089,0.1261,0.0314,18.31,15.15,145.9,0.05,0.5,0.01,0.1,14.6,1.459,0.03
00:20:10,5.1480,0.0089,0.1262,0.0315,18.33,15.16,144.9,0.05,0.5,0.01,0.1,14.5,1.449,0.03
00:20:20,4.4800,0.1480,0.1280,0.0319,18.59,15.36,143.7,0.66,6.6,0.07,0.7,14.4,1.437,0.35
00:20:30,5.1500,0.0087,0.1282,0.0319,18.61,15.37,144.0,0.04,0.4,0.0,0.0,14.4,1.44,0.02
00:20:40,3.8840,0.2410,0.1308,0.0326,18.99,15.70,143.5,0.94,9.4,0.1,1.0,14.4,1.435,0.49
00:20:50,4.4500,0.2344,0.1337,0.0332,19.41,16.01,139.3,1.04,10.4,0.11,1.1,13.9,1.393,0.56
00:21:00,5.1500,0.0093,0.1338,0.0332,19.43,16.02,137.9,0.05,0.5,0.01,0.1,13.8,1.379,0.03
00:21:10,5.1500,0.0092,0.1339,0.0333,19.45,16.04,138.0,0.05,0.5,0.01,0.1,13.8,1.38,0.03
00:21:20,5.1500,0.0090,0.1341,0.0333,19.47,16.05,137.7,0.05,0.5,0.01,0.1,13.8,1.377,0.03
00:21:30,5.1500,0.0093,0.1342,0.0333,19.49,16.06,134.7,0.05,0.5,0.01,0.1,13.5,1.347,0.03
00:21:40,5.1500,0.0089,0.1343,0.0333,19.50,16.07,133.8,0.05,0.5,0.01,0.1,13.4,1.338,0.03
00:21:50,5.1510,0.0093,0.1344,0.0334,19.52,16.08,134.9,0.05,0.5,0.01,0.1,13.5,1.349,0.03
00:22:00,5.1500,0.0093,0.1346,0.0334,19.54,16.10,135.4,0.05,0.5,0.01,0.1,13.5,1.354,0.03
00:22:10,5.1500,0.0093,0.1347,0.0334,19.56,16.11,137.0,0.05,0.5,0.01,0.1,13.7,1.37,0.03
00:22:20,3.9020,0.2447,0.1374,0.0341,19.95,16.44,136.9,0.95,9.5,0.1,1.0,13.7,1.369,0.52
00:22:30,3.9250,0.3047,0.1407,0.0349,20.43,16.84,137.2,1.2,12.0,0.13,1.3,13.7,1.372,0.66
00:22:40,5.1500,0.0092,0.1408,0.0350,20.45,16.86,140.8,0.05,0.5,0.01,0.1,14.1,1.408,0.03
00:22:50,5.1510,0.0092,0.1409,0.0350,20.47,16.87,144.2,0.05,0.5,0.01,0.1,14.4,1.442,0.03
00:23:00,5.1500,0.0091,0.1411,0.0350,20.49,16.88,147.5,0.05,0.5,0.01,0.1,14.8,1.475,0.03
00:23:10,5.1500,0.0093,0.1412,0.0350,20.51,16.89,153.2,0.05,0.5,0.01,0.1,15.3,1.532,0.02
00:23:20,5.1500,0.0092,0.1413,0.0351,20.52,16.91,157.8,0.05,0.5,0.01,0.1,15.8,1.578,0.02
00:23:30,4.0830,0.2154,0.1438,0.0357,20.88,17.19,164.1,0.88,8.8,0.09,0.9,16.4,1.641,0.4
00:23:40,5.1500,0.0093,0.1439,0.0357,20.90,17.21,171.1,0.05,0.5,0.01,0.1,17.1,1.711,0.02
00:23:50,5.0050,0.0401,0.1445,0.0358,20.98,17.26,182.7,0.2,2.0,0.02,0.2,18.3,1.827,0.08
00:24:00,3.4780,0.3924,0.1483,0.0369,21.53,17.79,218.0,1.36,13.6,0.14,1.4,21.8,2.18,0.47
00:24:10,4.6660,0.1850,0.1507,0.0374,21.88,18.03,248.0,0.86,8.6,0.09,0.9,24.8,2.48,0.26
00:24:20,5.1500,0.0093,0.1508,0.0374,21.90,18.05,292.0,0.05,0.5,0.01,0.1,29.2,2.92,0.01
00:24:30,5.1500,0.0092,0.1509,0.0375,21.92,18.06,382.0,0.05,0.5,0.01,0.1,38.2,3.82,0.01
00:24:40,5.1500,0.0093,0.1511,0.0375,21.94,18.07,423.0,0.05,0.5,0.01,0.1,42.3,4.23,0.01
00:24:50,5.1500,0.0117,0.1512,0.0375,21.96,18.09,614.0,0.06,0.6,0.01,0.1,61.4,6.14,0.01
00:25:00,4.0830,0.2718,0.1543,0.0383,22.41,18.45,681.0,1.11,11.1,0.12,1.2,68.1,6.81,0.12
00:25:10,3.7060,0.3507,0.1579,0.0392,22.93,18.92,386.0,1.3,13.0,0.14,1.4,38.6,3.86,0.25
00:25:20,4.7700,0.1908,0.1605,0.0398,23.30,19.18,587.0,0.91,9.1,0.1,1.0,58.7,5.87,0.12
00:25:30,4.3650,0.2546,0.1635,0.0405,23.75,19.52,597.0,1.11,11.1,0.12,1.2,59.7,5.97,0.14
00:25:40,5.1480,0.0674,0.1645,0.0407,23.89,19.61,707.0,0.35,3.5,0.04,0.4,70.7,7.07,0.04
00:25:50,5.1500,0.0093,0.1646,0.0407,23.91,19.62,759.0,0.05,0.5,0.01,0.1,75.9,7.59,0.0
00:26:00,5.1500,0.0092,0.1648,0.0407,23.93,19.63,757.0,0.05,0.5,0.01,0.1,75.7,7.57,0.0
00:26:10,5.1500,0.0092,0.1649,0.0407,23.95,19.64,757.0,0.05,0.5,0.01,0.1,75.7,7.57,0.0
00:26:20,5.1500,0.0093,0.1650,0.0408,23.96,19.66,751.0,0.05,0.5,0.01,0.1,75.1,7.51,0.01
00:26:30,5.1500,0.0093,0.1652,0.0408,23.98,19.67,753.0,0.05,0.5,0.01,0.1,75.3,7.53,0.0
00:26:40,5.1500,0.0092,0.1653,0.0408,24.00,19.68,750.0,0.05,0.5,0.01,0.1,75.0,7.5,0.01
00:26:50,5.1500,0.0093,0.1654,0.0409,24.02,19.69,749.0,0.05,0.5,0.01,0.1,74.9,7.49,0.01
00:27:00,5.1500,0.0093,0.1656,0.0409,24.04,19.71,747.0,0.05,0.5,0.01,0.1,74.7,7.47,0.01
00:27:10,5.1500,0.0093,0.1657,0.0409,24.06,19.72,749.0,0.05,0.5,0.01,0.1,74.9,7.49,0.01
00:27:20,5.1500,0.0087,0.1658,0.0409,24.08,19.73,746.0,0.04,0.4,0.0,0.0,74.6,7.46,0.0
00:27:30,5.1500,0.0093,0.1660,0.0410,24.10,19.74,745.0,0.05,0.5,0.01,0.1,74.5,7.45,0.01
00:27:40,5.1500,0.0091,0.1661,0.0410,24.12,19.76,750.0,0.05,0.5,0.01,0.1,75.0,7.5,0.01
00:27:50,5.1440,0.0427,0.1667,0.0411,24.21,19.81,750.0,0.22,2.2,0.02,0.2,75.0,7.5,0.02
00:28:00,4.0510,0.2315,0.1693,0.0417,24.58,20.12,751.0,0.94,9.4,0.1,1.0,75.1,7.51,0.09
00:28:10,5.1470,0.0514,0.1700,0.0419,24.69,20.19,750.0,0.26,2.6,0.03,0.3,75.0,7.5,0.03
00:28:20,5.1500,0.0092,0.1702,0.0419,24.71,20.20,753.0,0.05,0.5,0.01,0.1,75.3,7.53,0.0
00:28:30,5.1500,0.0092,0.1703,0.0419,24.73,20.22,754.0,0.05,0.5,0.01,0.1,75.4,7.54,0.0
00:28:40,5.1500,0.0093,0.1704,0.0420,24.75,20.23,754.0,0.05,0.5,0.01,0.1,75.4,7.54,0.0
00:28:50,5.1500,0.0093,0.1706,0.0420,24.77,20.24,755.0,0.05,0.5,0.01,0.1,75.5,7.55,0.0
00:29:00,5.1500,0.0092,0.1707,0.0420,24.79,20.25,754.0,0.05,0.5,0.01,0.1,75.4,7.54,0.0
00:29:10,5.1500,0.0093,0.1708,0.0420,24.81,20.27,755.0,0.05,0.5,0.01,0.1,75.5,7.55,0.0
00:29:20,5.1500,0.0092,0.1710,0.0421,24.83,20.28,757.0,0.05,0.5,0.01,0.1,75.7,7.57,0.0
00:29:30,5.1460,0.1367,0.1729,0.0424,25.11,20.46,759.0,0.7,7.0,0.07,0.7,75.9,7.59,0.07
00:29:40,4.1100,0.3794,0.1772,0.0435,25.74,20.97,761.0,1.56,15.6,0.17,1.7,76.1,7.61,0.15
00:29:50,4.4520,0.3677,0.1818,0.0445,26.40,21.46,764.0,1.64,16.4,0.17,1.7,76.4,7.64,0.16
00:30:00,4.0600,0.4472,0.1868,0.0458,27.13,22.06,765.0,1.82,18.2,0.19,1.9,76.5,7.65,0.18
00:30:10,4.4060,0.3696,0.1914,0.0468,27.79,22.56,769.0,1.63,16.3,0.17,1.7,76.9,7.69,0.16
00:30:20,5.1400,0.0487,0.1921,0.0469,27.89,22.62,769.0,0.25,2.5,0.03,0.3,76.9,7.69,0.02
00:30:30,5.1500,0.0094,0.1922,0.0469,27.91,22.63,773.0,0.05,0.5,0.01,0.1,77.3,7.73,0.0
00:30:40,5.1500,0.0092,0.1923,0.0470,27.93,22.65,774.0,0.05,0.5,0.01,0.1,77.4,7.74,0.0
00:30:50,5.1500,0.0093,0.1925,0.0470,27.95,22.66,772.0,0.05,0.5,0.01,0.1,77.2,7.72,0.0
00:31:00,5.1500,0.0092,0.1926,0.0470,27.97,22.67,753.0,0.05,0.5,0.01,0.1,75.3,7.53,0.0
00:31:10,5.1500,0.0093,0.1927,0.0471,27.99,22.68,739.0,0.05,0.5,0.01,0.1,73.9,7.39,0.01
00:31:20,5.1500,0.0092,0.1928,0.0471,28.00,22.69,752.0,0.05,0.5,0.01,0.1,75.2,7.52,0.0
00:31:30,5.1500,0.0093,0.1930,0.0471,28.02,22.71,755.0,0.05,0.5,0.01,0.1,75.5,7.55,0.0
00:31:40,5.1500,0.0093,0.1931,0.0471,28.04,22.72,412.0,0.05,0.5,0.01,0.1,41.2,4.12,0.01
00:31:50,5.1500,0.0093,0.1932,0.0472,28.06,22.73,602.0,0.05,0.5,0.01,0.1,60.2,6.02,0.01
00:32:00,5.1500,0.0091,0.1934,0.0472,28.08,22.74,755.0,0.05,0.5,0.01,0.1,75.5,7.55,0.0
00:32:10,5.1500,0.0092,0.1935,0.0472,28.10,22.76,754.0,0.05,0.5,0.01,0.1,75.4,7.54,0.0
00:32:20,5.1500,0.0093,0.1936,0.0472,28.12,22.77,740.0,0.05,0.5,0.01,0.1,74.0,7.4,0.01
00:32:30,5.1500,0.0092,0.1938,0.0473,28.14,22.78,500.0,0.05,0.5,0.01,0.1,50.0,5.0,0.01
00:32:40,5.1500,0.0093,0.1939,0.0473,28.16,22.79,330.0,0.05,0.5,0.01,0.1,33.0,3.3,0.01
00:32:50,5.1500,0.0093,0.1940,0.0473,28.18,22.81,156.5,0.05,0.5,0.01,0.1,15.7,1.565,0.02
00:33:00,5.1500,0.0093,0.1942,0.0473,28.20,22.82,154.1,0.05,0.5,0.01,0.1,15.4,1.541,0.02
00:33:10,5.1490,0.0375,0.1947,0.0474,28.27,22.87,153.0,0.19,1.9,0.02,0.2,15.3,1.53,0.09
00:33:20,4.7160,0.2008,0.1973,0.0480,28.66,23.14,153.2,0.95,9.5,0.1,1.0,15.3,1.532,0.47
00:33:30,5.1500,0.0093,0.1975,0.0480,28.68,23.15,152.1,0.05,0.5,0.01,0.1,15.2,1.521,0.02
00:33:40,5.1510,0.0092,0.1976,0.0480,28.69,23.16,152.9,0.05,0.5,0.01,0.1,15.3,1.529,0.02
00:33:50,5.1500,0.0091,0.1977,0.0481,28.71,23.17,156.5,0.05,0.5,0.01,0.1,15.7,1.565,0.02
00:34:00,5.1490,0.0090,0.1979,0.0481,28.73,23.19,157.4,0.05,0.5,0.01,0.1,15.7,1.574,0.02
00:34:10,4.8650,0.0655,0.1987,0.0483,28.86,23.27,158.5,0.32,3.2,0.03,0.3,15.9,1.585,0.15
00:34:20,3.9440,0.3373,0.2024,0.0492,29.40,23.73,157.0,1.33,13.3,0.14,1.4,15.7,1.57,0.64
00:34:30,5.1460,0.1352,0.2044,0.0496,29.68,23.91,153.1,0.7,7.0,0.07,0.7,15.3,1.531,0.34
00:34:40,5.1500,0.0235,0.2047,0.0497,29.73,23.94,147.2,0.12,1.2,0.01,0.1,14.7,1.472,0.06
00:34:50,5.1510,0.0089,0.2048,0.0497,29.75,23.95,143.9,0.05,0.5,0.01,0.1,14.4,1.439,0.03
00:35:00,5.1500,0.0093,0.2050,0.0497,29.76,23.96,142.9,0.05,0.5,0.01,0.1,14.3,1.429,0.03
00:35:10,5.1510,0.0093,0.2051,0.0497,29.78,23.98,143.6,0.05,0.5,0.01,0.1,14.4,1.436,0.03
00:35:20,5.1510,0.0093,0.2052,0.0498,29.80,23.99,144.3,0.05,0.5,0.01,0.1,14.4,1.443,0.03
00:35:30,5.1500,0.0093,0.2054,0.0498,29.82,24.00,143.5,0.05,0.5,0.01,0.1,14.4,1.435,0.03
00:35:40,4.0870,0.2138,0.2078,0.0504,30.18,24.29,143.9,0.87,8.7,0.09,0.9,14.4,1.439,0.45
00:35:50,4.2970,0.2678,0.2110,0.0511,30.64,24.65,142.4,1.15,11.5,0.12,1.2,14.2,1.424,0.61
00:36:00,4.0280,0.3259,0.2146,0.0520,31.17,25.08,140.1,1.31,13.1,0.14,1.4,14.0,1.401,0.7
00:36:10,5.1500,0.0093,0.2148,0.0521,31.19,25.09,139.2,0.05,0.5,0.01,0.1,13.9,1.392,0.03
00:36:20,5.1500,0.0093,0.2149,0.0521,31.21,25.11,139.0,0.05,0.5,0.01,0.1,13.9,1.39,0.03
00:36:30,5.1500,0.0092,0.2150,0.0521,31.23,25.12,137.8,0.05,0.5,0.01,0.1,13.8,1.378,0.03
00:36:40,5.1500,0.0092,0.2152,0.0521,31.25,25.13,137.7,0.05,0.5,0.01,0.1,13.8,1.377,0.03
00:36:50,5.1500,0.0093,0.2153,0.0522,31.27,25.14,139.5,0.05,0.5,0.01,0.1,14.0,1.395,0.03
00:37:00,5.1500,0.0093,0.2154,0.0522,31.28,25.16,141.2,0.05,0.5,0.01,0.1,14.1,1.412,0.03
00:37:10,5.1500,0.0093,0.2156,0.0522,31.30,25.17,141.1,0.05,0.5,0.01,0.1,14.1,1.411,0.03
00:37:20,5.1500,0.0093,0.2157,0.0522,31.32,25.18,143.0,0.05,0.5,0.01,0.1,14.3,1.43,0.03
00:37:30,4.5530,0.1334,0.2174,0.0526,31.57,25.36,141.9,0.61,6.1,0.06,0.6,14.2,1.419,0.32
00:37:40,4.3140,0.2582,0.2205,0.0533,32.02,25.71,142.0,1.11,11.1,0.12,1.2,14.2,1.42,0.59
00:37:50,5.1500,0.0377,0.2210,0.0534,32.10,25.76,145.1,0.19,1.9,0.02,0.2,14.5,1.451,0.1
00:38:00,4.4810,0.2315,0.2239,0.0541,32.51,26.07,145.6,1.04,10.4,0.11,1.1,14.6,1.456,0.54
00:38:10,5.1510,0.0091,0.2240,0.0541,32.53,26.08,144.4,0.05,0.5,0.01,0.1,14.4,1.444,0.03
00:38:20,5.1510,0.0092,0.2242,0.0541,32.55,26.09,141.1,0.05,0.5,0.01,0.1,14.1,1.411,0.03
00:38:30,5.1510,0.0093,0.2243,0.0541,32.57,26.10,138.7,0.05,0.5,0.01,0.1,13.9,1.387,0.03
00:38:40,5.1510,0.0093,0.2244,0.0542,32.59,26.12,138.7,0.05,0.5,0.01,0.1,13.9,1.387,0.03
00:38:50,5.1500,0.0093,0.2246,0.0542,32.61,26.13,139.4,0.05,0.5,0.01,0.1,13.9,1.394,0.03
00:39:00,5.1510,0.0092,0.2247,0.0542,32.63,26.14,140.8,0.05,0.5,0.01,0.1,14.1,1.408,0.03
00:39:10,5.1510,0.0092,0.2248,0.0542,32.65,26.15,140.5,0.05,0.5,0.01,0.1,14.1,1.405,0.03
00:39:20,4.2980,0.1431,0.2265,0.0546,32.90,26.34,141.3,0.62,6.2,0.07,0.7,14.1,1.413,0.33
00:39:30,4.0320,0.3101,0.2300,0.0555,33.40,26.76,139.9,1.25,12.5,0.13,1.3,14.0,1.399,0.67
00:39:40,5.1500,0.0950,0.2314,0.0558,33.60,26.89,140.7,0.49,4.9,0.05,0.5,14.1,1.407,0.26
00:39:50,4.8870,0.1363,0.2332,0.0562,33.87,27.07,141.4,0.67,6.7,0.07,0.7,14.1,1.414,0.36
00:40:00,5.1500,0.0090,0.2334,0.0562,33.89,27.08,142.0,0.05,0.5,0.01,0.1,14.2,1.42,0.03
00:40:10,5.1510,0.0092,0.2335,0.0562,33.90,27.09,141.4,0.05,0.5,0.01,0.1,14.1,1.414,0.03
00:40:20,4.8040,0.0784,0.2345,0.0564,34.06,27.20,142.8,0.38,3.8,0.04,0.4,14.3,1.428,0.2
00:40:30,4.1830,0.2586,0.2375,0.0571,34.49,27.54,142.4,1.08,10.8,0.11,1.1,14.2,1.424,0.57
00:40:40,5.1510,0.0093,0.2377,0.0572,34.51,27.56,140.8,0.05,0.5,0.01,0.1,14.1,1.408,0.03
00:40:50,5.1510,0.0092,0.2378,0.0572,34.53,27.57,140.5,0.05,0.5,0.01,0.1,14.1,1.405,0.03
00:41:00,5.0690,0.0087,0.2379,0.0572,34.55,27.58,140.6,0.04,0.4,0.0,0.0,14.1,1.406,0.02
00:41:10,5.1510,0.0093,0.2381,0.0572,34.57,27.59,141.5,0.05,0.5,0.01,0.1,14.2,1.415,0.03
00:41:20,5.1510,0.0092,0.2382,0.0573,34.59,27.61,140.3,0.05,0.5,0.01,0.1,14.0,1.403,0.03
00:41:30,2.9880,0.2715,0.2404,0.0580,34.91,27.97,140.1,0.81,8.1,0.09,0.9,14.0,1.401,0.43
00:41:40,5.1510,0.0092,0.2406,0.0580,34.93,27.98,141.4,0.05,0.5,0.01,0.1,14.1,1.414,0.03
00:41:50,3.8820,0.2296,0.2430,0.0587,35.29,28.29,144.2,0.89,8.9,0.09,0.9,14.4,1.442,0.46
00:42:00,5.1510,0.0093,0.2432,0.0587,35.31,28.30,147.5,0.05,0.5,0.01,0.1,14.8,1.475,0.03
00:42:10,5.1510,0.0092,0.2433,0.0587,35.33,28.31,155.2,0.05,0.5,0.01,0.1,15.5,1.552,0.02
00:42:20,5.1510,0.0089,0.2434,0.0588,35.35,28.33,159.3,0.05,0.5,0.01,0.1,15.9,1.593,0.02
00:42:30,5.1510,0.0093,0.2436,0.0588,35.37,28.34,162.1,0.05,0.5,0.01,0.1,16.2,1.621,0.02
00:42:40,5.1510,0.0093,0.2437,0.0588,35.39,28.35,160.7,0.05,0.5,0.01,0.1,16.1,1.607,0.02
00:42:50,4.0970,0.1683,0.2456,0.0593,35.67,28.58,155.7,0.69,6.9,0.07,0.7,15.6,1.557,0.33
00:43:00,5.1510,0.0089,0.2457,0.0593,35.69,28.59,153.7,0.05,0.5,0.01,0.1,15.4,1.537,0.02
00:43:10,5.1510,0.0092,0.2459,0.0593,35.70,28.60,150.5,0.05,0.5,0.01,0.1,15.1,1.505,0.02
00:43:20,5.1510,0.0093,0.2460,0.0594,35.72,28.61,151.0,0.05,0.5,0.01,0.1,15.1,1.51,0.02
00:43:30,4.5330,0.1831,0.2483,0.0599,36.06,28.86,160.2,0.83,8.3,0.09,0.9,16.0,1.602,0.39
00:43:40,4.8940,0.0489,0.2490,0.0600,36.16,28.92,176.2,0.24,2.4,0.03,0.3,17.6,1.762,0.1
00:43:50,5.1510,0.0091,0.2491,0.0600,36.17,28.94,209.0,0.05,0.5,0.01,0.1,20.9,2.09,0.02
00:44:00,5.1510,0.0092,0.2492,0.0600,36.19,28.95,350.0,0.05,0.5,0.01,0.1,35.0,3.5,0.01
00:44:10,2.6010,0.3525,0.2518,0.0610,36.56,29.42,504.0,0.92,9.2,0.1,1.0,50.4,5.04,0.14
00:44:20,5.1510,0.0093,0.2519,0.0611,36.58,29.43,649.0,0.05,0.5,0.01,0.1,64.9,6.49,0.01
00:44:30,4.6970,0.0896,0.2531,0.0613,36.75,29.55,708.0,0.42,4.2,0.04,0.4,70.8,7.08,0.04
00:44:40,5.1510,0.0092,0.2532,0.0613,36.77,29.57,694.0,0.05,0.5,0.01,0.1,69.4,6.94,0.01
00:44:50,5.1510,0.0092,0.2534,0.0614,36.79,29.58,681.0,0.05,0.5,0.01,0.1,68.1,6.81,0.01
00:45:00,5.1510,0.0091,0.2535,0.0614,36.81,29.59,638.0,0.05,0.5,0.01,0.1,63.8,6.38,0.01
00:45:10,3.8560,0.2540,0.2562,0.0621,37.20,29.93,708.0,0.98,9.8,0.1,1.0,70.8,7.08,0.1
00:45:20,4.3370,0.1107,0.2575,0.0624,37.40,30.08,717.0,0.48,4.8,0.05,0.5,71.7,7.17,0.05
00:45:30,5.1510,0.0091,0.2577,0.0624,37.42,30.09,686.0,0.05,0.5,0.01,0.1,68.6,6.86,0.01
00:45:40,5.1510,0.0092,0.2578,0.0624,37.44,30.10,696.0,0.05,0.5,0.01,0.1,69.6,6.96,0.01
00:45:50,5.1510,0.0093,0.2579,0.0625,37.46,30.11,696.0,0.05,0.5,0.01,0.1,69.6,6.96,0.01
00:46:00,5.1510,0.0086,0.2581,0.0625,37.47,30.13,686.0,0.04,0.4,0.0,0.0,68.6,6.86,0.0
00:46:10,5.1510,0.0093,0.2582,0.0625,37.49,30.14,671.0,0.05,0.5,0.01,0.1,67.1,6.71,0.01
00:46:20,5.1500,0.0413,0.2588,0.0626,37.58,30.19,668.0,0.21,2.1,0.02,0.2,66.8,6.68,0.02
00:46:30,5.1510,0.0092,0.2589,0.0627,37.60,30.21,667.0,0.05,0.5,0.01,0.1,66.7,6.67,0.01
00:46:40,4.8700,0.0413,0.2595,0.0628,37.68,30.26,663.0,0.2,2.0,0.02,0.2,66.3,6.63,0.02
00:46:50,5.1510,0.0093,0.2596,0.0628,37.70,30.27,656.0,0.05,0.5,0.01,0.1,65.6,6.56,0.01
00:47:00,4.0790,0.2477,0.2624,0.0635,38.11,30.61,661.0,1.01,10.1,0.11,1.1,66.1,6.61,0.11
00:47:10,4.0650,0.2863,0.2656,0.0643,38.58,30.99,656.0,1.16,11.6,0.12,1.2,65.6,6.56,0.13
00:47:20,5.1510,0.0093,0.2658,0.0643,38.59,31.00,653.0,0.05,0.5,0.01,0.1,65.3,6.53,0.01
00:47:30,5.1510,0.0092,0.2659,0.0643,38.61,31.01,650.0,0.05,0.5,0.01,0.1,65.0,6.5,0.01
00:47:40,5.1510,0.0092,0.2660,0.0644,38.63,31.03,646.0,0.05,0.5,0.01,0.1,64.6,6.46,0.01
00:47:50,3.3500,0.3092,0.2689,0.0652,39.05,31.44,637.0,1.04,10.4,0.11,1.1,63.7,6.37,0.12
00:48:00,3.6710,0.3270,0.2723,0.0661,39.53,31.88,643.0,1.2,12.0,0.13,1.3,64.3,6.43,0.14
00:48:10,5.1510,0.0091,0.2724,0.0662,39.55,31.89,641.0,0.05,0.5,0.01,0.1,64.1,6.41,0.01
00:48:20,5.1510,0.0093,0.2725,0.0662,39.57,31.90,625.0,0.05,0.5,0.01,0.1,62.5,6.25,0.01
00:48:30,2.6420,0.3832,0.2753,0.0672,39.98,32.42,623.0,1.01,10.1,0.11,1.1,62.3,6.23,0.12
00:48:40,5.1510,0.0093,0.2755,0.0673,40.00,32.43,622.0,0.05,0.5,0.01,0.1,62.2,6.22,0.01
00:48:50,4.0870,0.1638,0.2773,0.0677,40.27,32.65,630.0,0.67,6.7,0.07,0.7,63.0,6.3,0.08
00:49:00,5.1330,0.0867,0.2786,0.0680,40.45,32.76,626.0,0.45,4.5,0.05,0.5,62.6,6.26,0.05
00:49:10,5.1510,0.0092,0.2787,0.0680,40.47,32.78,618.0,0.05,0.5,0.01,0.1,61.8,6.18,0.01
00:49:20,5.1510,0.0093,0.2788,0.0680,40.49,32.79,621.0,0.05,0.5,0.01,0.1,62.1,6.21,0.01
00:49:30,5.1510,0.0092,0.2790,0.0680,40.51,32.80,624.0,0.05,0.5,0.01,0.1,62.4,6.24,0.01
00:49:40,3.4490,0.3262,0.2821,0.0689,40.96,33.24,633.0,1.13,11.3,0.12,1.2,63.3,6.33,0.13
00:49:50,5.1510,0.0092,0.2822,0.0690,40.98,33.25,645.0,0.05,0.5,0.01,0.1,64.5,6.45,0.01
00:50:00,2.9440,0.3412,0.2850,0.0699,41.39,33.71,650.0,1.0,10.0,0.11,1.1,65.0,6.5,0.12
00:50:10,5.1510,0.0091,0.2851,0.0699,41.40,33.72,662.0,0.05,0.5,0.01,0.1,66.2,6.62,0.01
00:50:20,4.9450,0.1475,0.2872,0.0704,41.70,33.92,669.0,0.73,7.3,0.08,0.8,66.9,6.69,0.08
00:50:30,5.1510,0.0092,0.2873,0.0704,41.72,33.93,666.0,0.05,0.5,0.01,0.1,66.6,6.66,0.01
00:50:40,5.1510,0.0092,0.2874,0.0704,41.74,33.94,659.0,0.05,0.5,0.01,0.1,65.9,6.59,0.01
00:50:50,4.2500,0.1461,0.2891,0.0708,41.99,34.14,652.0,0.62,6.2,0.07,0.7,65.2,6.52,0.07
00:51:00,5.1510,0.0093,0.2893,0.0708,42.01,34.15,649.0,0.05,0.5,0.01,0.1,64.9,6.49,0.01
00:51:10,5.1510,0.0093,0.2894,0.0709,42.03,34.16,638.0,0.05,0.5,0.01,0.1,63.8,6.38,0.01
00:51:20,2.6080,0.3742,0.2921,0.0719,42.42,34.66,629.0,0.98,9.8,0.1,1.0,62.9,6.29,0.12
00:51:30,5.1510,0.0092,0.2923,0.0719,42.44,34.68,633.0,0.05,0.5,0.01,0.1,63.3,6.33,0.01
00:51:40,5.1510,0.0093,0.2924,0.0720,42.46,34.69,639.0,0.05,0.5,0.01,0.1,63.9,6.39,0.01
00:51:50,5.1510,0.0093,0.2925,0.0720,42.48,34.70,642.0,0.05,0.5,0.01,0.1,64.2,6.42,0.01
00:52:00,5.1510,0.0093,0.2927,0.0720,42.50,34.71,646.0,0.05,0.5,0.01,0.1,64.6,6.46,0.01
00:52:10,5.1510,0.0093,0.2928,0.0720,42.52,34.73,645.0,0.05,0.5,0.01,0.1,64.5,6.45,0.01
00:52:20,5.1510,0.0093,0.2929,0.0721,42.54,34.74,644.0,0.05,0.5,0.01,0.1,64.4,6.44,0.01
00:52:30,5.1510,0.0092,0.2931,0.0721,42.55,34.75,644.0,0.05,0.5,0.01,0.1,64.4,6.44,0.01
00:52:40,5.1510,0.0093,0.2932,0.0721,42.57,34.76,646.0,0.05,0.5,0.01,0.1,64.6,6.46,0.01
00:52:50,4.7300,0.0743,0.2942,0.0723,42.72,34.86,646.0,0.35,3.5,0.04,0.4,64.6,6.46,0.04
00:53:00,5.1510,0.0092,0.2943,0.0723,42.74,34.87,652.0,0.05,0.5,0.01,0.1,65.2,6.52,0.01
00:53:10,4.4290,0.2173,0.2970,0.0729,43.12,35.17,652.0,0.96,9.6,0.1,1.0,65.2,6.52,0.11
00:53:20,5.1510,0.0093,0.2971,0.0730,43.14,35.18,653.0,0.05,0.5,0.01,0.1,65.3,6.53,0.01
00:53:30,5.1510,0.0093,0.2972,0.0730,43.16,35.19,652.0,0.05,0.5,0.01,0.1,65.2,6.52,0.01
00:53:40,4.1060,0.1628,0.2991,0.0734,43.43,35.41,653.0,0.67,6.7,0.07,0.7,65.3,6.53,0.08
00:53:50,5.1510,0.0091,0.2992,0.0735,43.45,35.42,651.0,0.05,0.5,0.01,0.1,65.1,6.51,0.01
00:54:00,5.1510,0.0090,0.2993,0.0735,43.47,35.43,657.0,0.05,0.5,0.01,0.1,65.7,6.57,0.01
00:54:10,5.0410,0.1134,0.3009,0.0738,43.70,35.58,662.0,0.57,5.7,0.06,0.6,66.2,6.62,0.06
00:54:20,5.1510,0.0092,0.3011,0.0738,43.72,35.60,659.0,0.05,0.5,0.01,0.1,65.9,6.59,0.01
00:54:30,5.1510,0.0235,0.3014,0.0739,43.77,35.63,660.0,0.12,1.2,0.01,0.1,66.0,6.6,0.01
00:54:40,4.2050,0.1458,0.3031,0.0743,44.02,35.82,656.0,0.61,6.1,0.06,0.6,65.6,6.56,0.07
00:54:50,4.5870,0.1605,0.3052,0.0748,44.31,36.04,662.0,0.74,7.4,0.08,0.8,66.2,6.62,0.08
00:55:00,5.1510,0.0093,0.3053,0.0748,44.33,36.05,659.0,0.05,0.5,0.01,0.1,65.9,6.59,0.01
00:55:10,4.2170,0.2076,0.3077,0.0754,44.68,36.33,660.0,0.88,8.8,0.09,0.9,66.0,6.6,0.1
00:55:20,5.1510,0.0093,0.3078,0.0754,44.70,36.34,661.0,0.05,0.5,0.01,0.1,66.1,6.61,0.01
00:55:30,5.1520,0.0092,0.3080,0.0754,44.72,36.35,661.0,0.05,0.5,0.01,0.1,66.1,6.61,0.01
00:55:40,2.5900,0.2255,0.3096,0.0760,44.96,36.66,658.0,0.58,5.8,0.06,0.6,65.8,6.58,0.07
00:55:50,2.5520,0.1611,0.3107,0.0765,45.12,36.87,653.0,0.41,4.1,0.04,0.4,65.3,6.53,0.05
00:56:00,5.1530,0.0092,0.3109,0.0765,45.14,36.88,646.0,0.05,0.5,0.01,0.1,64.6,6.46,0.01
00:56:10,2.5020,0.1924,0.3122,0.0770,45.34,37.14,635.0,0.48,4.8,0.05,0.5,63.5,6.35,0.06
00:56:20,2.5350,0.1469,0.3132,0.0775,45.49,37.34,641.0,0.37,3.7,0.04,0.4,64.1,6.41,0.04
00:56:30,5.1520,0.0093,0.3134,0.0775,45.51,37.35,617.0,0.05,0.5,0.01,0.1,61.7,6.17,0.01
00:56:40,5.1520,0.0093,0.3135,0.0775,45.53,37.36,594.0,0.05,0.5,0.01,0.1,59.4,5.94,0.01
00:56:50,2.5380,0.2171,0.3150,0.0781,45.75,37.65,587.0,0.55,5.5,0.06,0.6,58.7,5.87,0.07
00:57:00,5.1520,0.0091,0.3152,0.0781,45.77,37.67,552.0,0.05,0.5,0.01,0.1,55.2,5.52,0.01
00:57:10,3.0090,0.1944,0.3168,0.0787,46.00,37.93,539.0,0.58,5.8,0.06,0.6,53.9,5.39,0.08
00:57:20,4.8130,0.1189,0.3184,0.0790,46.23,38.09,513.0,0.57,5.7,0.06,0.6,51.3,5.13,0.08
00:57:30,5.1520,0.0092,0.3185,0.0790,46.25,38.10,511.0,0.05,0.5,0.01,0.1,51.1,5.11,0.01
00:57:40,4.3750,0.2742,0.3219,0.0798,46.74,38.46,520.0,1.2,12.0,0.13,1.3,52.0,5.2,0.17
00:57:50,2.7250,0.7013,0.3272,0.0817,47.51,39.40,590.0,1.91,19.1,0.2,2.0,59.0,5.9,0.24
00:58:00,2.7120,0.6757,0.3323,0.0836,48.25,40.31,644.0,1.83,18.3,0.19,1.9,64.4,6.44,0.21
00:58:10,5.1510,0.0088,0.3324,0.0836,48.27,40.32,664.0,0.05,0.5,0.01,0.1,66.4,6.64,0.01
00:58:20,5.1520,0.0092,0.3325,0.0837,48.28,40.33,654.0,0.05,0.5,0.01,0.1,65.4,6.54,0.01
00:58:30,5.1520,0.0085,0.3326,0.0837,48.30,40.34,626.0,0.04,0.4,0.0,0.0,62.6,6.26,0.0
00:58:40,3.5080,0.1796,0.3344,0.0842,48.56,40.58,645.0,0.63,6.3,0.07,0.7,64.5,6.45,0.07
00:58:50,5.1520,0.0092,0.3345,0.0842,48.58,40.60,671.0,0.05,0.5,0.01,0.1,67.1,6.71,0.01
00:59:00,5.1520,0.0092,0.3346,0.0842,48.59,40.61,670.0,0.05,0.5,0.01,0.1,67.0,6.7,0.01
00:59:10,5.1520,0.0093,0.3348,0.0843,48.61,40.62,671.0,0.05,0.5,0.01,0.1,67.1,6.71,0.01
00:59:20,5.1520,0.0093,0.3349,0.0843,48.63,40.63,674.0,0.05,0.5,0.01,0.1,67.4,6.74,0.01
00:59:30,4.1500,0.1727,0.3369,0.0848,48.92,40.87,675.0,0.72,7.2,0.08,0.8,67.5,6.75,0.08
00:59:40,2.5940,0.2511,0.3387,0.0855,49.19,41.20,680.0,0.65,6.5,0.07,0.7,68.0,6.8,0.07
00:59:50,5.1520,0.0236,0.3390,0.0855,49.23,41.23,681.0,0.12,1.2,0.01,0.1,68.1,6.81,0.01
01:00:00,5.1520,0.0093,0.3392,0.0856,49.25,41.25,679.0,0.05,0.5,0.01,0.1,67.9,6.79,0.01
01:00:10,5.1510,0.0093,0.3393,0.0856,49.27,41.26,680.0,0.05,0.5,0.01,0.1,68.0,6.8,0.01
01:00:20,3.9130,0.4125,0.3438,0.0867,49.92,41.81,670.0,1.61,16.1,0.17,1.7,67.0,6.7,0.18
01:00:30,4.8960,0.5015,0.3506,0.0881,50.91,42.48,598.0,2.46,24.6,0.26,2.6,59.8,5.98,0.31
01:00:40,2.7790,0.7866,0.3567,0.0903,51.80,43.54,545.0,2.19,21.9,0.23,2.3,54.5,5.45,0.3
01:00:50,2.7630,0.7663,0.3626,0.0924,52.65,44.56,579.0,2.12,21.2,0.22,2.2,57.9,5.79,0.28
01:01:00,2.7600,0.7611,0.3684,0.0946,53.50,45.58,553.0,2.1,21.0,0.22,2.2,55.3,5.53,0.29
01:01:10,2.7590,0.7473,0.3741,0.0966,54.33,46.58,638.0,2.06,20.6,0.22,2.2,63.8,6.38,0.24
01:01:20,2.7560,0.7484,0.3799,0.0987,55.16,47.58,657.0,2.06,20.6,0.22,2.2,65.7,6.57,0.24
01:01:30,2.7580,0.7566,0.3857,0.1008,56.00,48.60,663.0,2.09,20.9,0.22,2.2,66.3,6.63,0.24
01:01:40,2.7520,0.7646,0.3915,0.1029,56.85,49.62,663.0,2.1,21.0,0.22,2.2,66.3,6.63,0.24
01:01:50,2.7500,0.7807,0.3975,0.1051,57.72,50.67,656.0,2.15,21.5,0.23,2.3,65.6,6.56,0.25
01:02:00,2.7490,0.7778,0.4034,0.1073,58.58,51.71,677.0,2.14,21.4,0.23,2.3,67.7,6.77,0.24
01:02:10,2.7470,0.7821,0.4094,0.1094,59.45,52.76,671.0,2.15,21.5,0.23,2.3,67.1,6.71,0.24
01:02:20,2.7430,0.7723,0.4153,0.1116,60.30,53.79,664.0,2.12,21.2,0.22,2.2,66.4,6.64,0.24
01:02:30,2.7380,0.7663,0.4211,0.1137,61.15,54.82,660.0,2.1,21.0,0.22,2.2,66.0,6.6,0.24
01:02:40,2.7430,0.7717,0.4270,0.1159,62.00,55.85,646.0,2.12,21.2,0.22,2.2,64.6,6.46,0.25
01:02:50,2.7390,0.7688,0.4328,0.1180,62.85,56.88,607.0,2.11,21.1,0.22,2.2,60.7,6.07,0.26
01:03:00,2.7270,0.7569,0.4386,0.1201,63.68,57.89,623.0,2.06,20.6,0.22,2.2,62.3,6.23,0.25
01:03:10,2.7270,0.7618,0.4443,0.1222,64.52,58.91,642.0,2.08,20.8,0.22,2.2,64.2,6.42,0.24
01:03:20,2.7280,0.7586,0.4501,0.1243,65.36,59.93,655.0,2.07,20.7,0.22,2.2,65.5,6.55,0.24
01:03:30,2.7200,0.7524,0.4558,0.1264,66.18,60.94,652.0,2.05,20.5,0.22,2.2,65.2,6.52,0.24
01:03:40,2.7180,0.7538,0.4614,0.1285,67.01,61.94,651.0,2.05,20.5,0.22,2.2,65.1,6.51,0.24
01:03:50,2.7170,0.7564,0.4672,0.1306,67.84,62.96,649.0,2.06,20.6,0.22,2.2,64.9,6.49,0.24
01:04:00,2.7140,0.7622,0.4729,0.1327,68.67,63.98,647.0,2.07,20.7,0.22,2.2,64.7,6.47,0.24
01:04:10,2.7130,0.7597,0.4786,0.1348,69.50,65.00,640.0,2.06,20.6,0.22,2.2,64.0,6.4,0.24
01:04:20,2.7080,0.7601,0.4843,0.1369,70.33,66.01,636.0,2.06,20.6,0.22,2.2,63.6,6.36,0.24
01:04:30,2.7010,0.7490,0.4900,0.1390,71.15,67.02,627.0,2.02,20.2,0.21,2.1,62.7,6.27,0.24
01:04:40,2.6970,0.7383,0.4955,0.1411,71.95,68.01,590.0,1.99,19.9,0.21,2.1,59.0,5.9,0.25
01:04:50,2.6900,0.7229,0.5009,0.1431,72.74,68.97,521.0,1.94,19.4,0.21,2.1,52.1,5.21,0.28
01:05:00,2.6840,0.7209,0.5063,0.1451,73.52,69.94,536.0,1.93,19.3,0.2,2.0,53.6,5.36,0.27
01:05:10,2.6840,0.7198,0.5116,0.1471,74.30,70.90,570.0,1.93,19.3,0.2,2.0,57.0,5.7,0.25
01:05:20,2.6790,0.7180,0.5170,0.1491,75.07,71.86,605.0,1.92,19.2,0.2,2.0,60.5,6.05,0.24
01:05:30,2.6830,0.7172,0.5223,0.1511,75.85,72.82,610.0,1.92,19.2,0.2,2.0,61.0,6.1,0.24
01:05:40,2.6810,0.7142,0.5276,0.1530,76.62,73.78,563.0,1.91,19.1,0.2,2.0,56.3,5.63,0.26
01:05:50,2.6800,0.7165,0.5330,0.1550,77.40,74.74,565.0,1.92,19.2,0.2,2.0,56.5,5.65,0.26
01:06:00,2.6790,0.7093,0.5383,0.1570,78.16,75.69,603.0,1.9,19.0,0.2,2.0,60.3,6.03,0.24
01:06:10,2.6770,0.7063,0.5435,0.1590,78.92,76.64,503.0,1.89,18.9,0.2,2.0,50.3,5.03,0.28
01:06:20,2.6760,0.7067,0.5488,0.1609,79.69,77.58,513.0,1.89,18.9,0.2,2.0,51.3,5.13,0.28
01:06:30,2.6740,0.7028,0.5540,0.1629,80.45,78.52,523.0,1.88,18.8,0.2,2.0,52.3,5.23,0.27
01:06:40,2.6690,0.6992,0.5592,0.1648,81.20,79.46,536.0,1.87,18.7,0.2,2.0,53.6,5.36,0.26
01:06:50,2.6660,0.7101,0.5644,0.1668,81.96,80.41,562.0,1.89,18.9,0.2,2.0,56.2,5.62,0.25
01:07:00,5.1510,0.1305,0.5663,0.1672,82.23,80.59,528.0,0.67,6.7,0.07,0.7,52.8,5.28,0.1
01:07:10,2.6580,0.7086,0.5715,0.1691,82.99,81.53,497.0,1.88,18.8,0.2,2.0,49.7,4.97,0.28
01:07:20,2.6580,0.7097,0.5768,0.1711,83.75,82.48,521.0,1.89,18.9,0.2,2.0,52.1,5.21,0.27
01:07:30,2.6530,0.6980,0.5819,0.1730,84.50,83.42,524.0,1.85,18.5,0.2,2.0,52.4,5.24,0.27
01:07:40,2.6450,0.6901,0.5870,0.1750,85.24,84.34,531.0,1.83,18.3,0.19,1.9,53.1,5.31,0.26
01:07:50,2.6450,0.6864,0.5920,0.1769,85.97,85.26,498.0,1.82,18.2,0.19,1.9,49.8,4.98,0.27
01:08:00,2.6350,0.6745,0.5970,0.1787,86.69,86.17,429.0,1.78,17.8,0.19,1.9,42.9,4.29,0.31
01:08:10,2.6330,0.6696,0.6019,0.1806,87.40,87.06,403.0,1.76,17.6,0.19,1.9,40.3,4.03,0.33
01:08:20,2.6230,0.6497,0.6066,0.1824,88.09,87.93,326.0,1.7,17.0,0.18,1.8,32.6,3.26,0.39
01:08:30,2.6280,0.6651,0.6114,0.1843,88.79,88.82,297.0,1.75,17.5,0.19,1.9,29.7,2.97,0.44
01:08:40,2.6290,0.6690,0.6163,0.1861,89.50,89.72,291.0,1.76,17.6,0.19,1.9,29.1,2.91,0.45
01:08:50,2.6240,0.6609,0.6211,0.1879,90.20,90.60,269.0,1.73,17.3,0.18,1.8,26.9,2.69,0.48
01:09:00,2.6180,0.6485,0.6259,0.1897,90.88,91.47,260.0,1.7,17.0,0.18,1.8,26.0,2.6,0.49
01:09:10,2.6130,0.6408,0.6305,0.1915,91.56,92.33,259.0,1.67,16.7,0.18,1.8,25.9,2.59,0.48
01:09:20,2.6150,0.6413,0.6352,0.1933,92.24,93.19,258.0,1.68,16.8,0.18,1.8,25.8,2.58,0.49
01:09:30,2.6070,0.6279,0.6397,0.1951,92.90,94.03,262.0,1.64,16.4,0.17,1.7,26.2,2.62,0.47
01:09:40,3.9930,0.4330,0.6445,0.1963,93.59,94.61,269.0,1.73,17.3,0.18,1.8,26.9,2.69,0.48
01:09:50,4.3550,0.2699,0.6478,0.1970,94.07,94.97,266.0,1.18,11.8,0.13,1.3,26.6,2.66,0.33
01:10:00,5.1520,0.0117,0.6480,0.1970,94.09,94.99,270.0,0.06,0.6,0.01,0.1,27.0,2.7,0.02
01:10:10,5.1520,0.0092,0.6481,0.1971,94.11,95.00,266.0,0.05,0.5,0.01,0.1,26.6,2.66,0.01
01:10:20,5.1520,0.0092,0.6482,0.1971,94.13,95.01,252.0,0.05,0.5,0.01,0.1,25.2,2.52,0.01
01:10:30,5.1520,0.0092,0.6484,0.1971,94.15,95.02,270.0,0.05,0.5,0.01,0.1,27.0,2.7,0.01
01:10:40,5.1520,0.0092,0.6485,0.1971,94.17,95.04,296.0,0.05,0.5,0.01,0.1,29.6,2.96,0.01
01:10:50,5.1520,0.0092,0.6486,0.1972,94.19,95.05,366.0,0.05,0.5,0.01,0.1,36.6,3.66,0.01
01:11:00,3.8000,0.3739,0.6526,0.1982,94.76,95.55,469.0,1.42,14.2,0.15,1.5,46.9,4.69,0.23
01:11:10,5.1520,0.0092,0.6527,0.1982,94.78,95.56,538.0,0.05,0.5,0.01,0.1,53.8,5.38,0.01
01:11:20,5.1520,0.0092,0.6528,0.1983,94.80,95.57,577.0,0.05,0.5,0.01,0.1,57.7,5.77,0.01
01:11:30,3.7430,0.2811,0.6557,0.1990,95.22,95.95,591.0,1.05,10.5,0.11,1.1,59.1,5.91,0.13
01:11:40,3.7920,0.3686,0.6596,0.2001,95.79,96.44,625.0,1.4,14.0,0.15,1.5,62.5,6.25,0.17
01:11:50,5.1520,0.0093,0.6598,0.2001,95.81,96.46,643.0,0.05,0.5,0.01,0.1,64.3,6.43,0.01
01:12:00,5.1520,0.0092,0.6599,0.2001,95.83,96.47,645.0,0.05,0.5,0.01,0.1,64.5,6.45,0.01
01:12:10,5.1520,0.0092,0.6600,0.2001,95.84,96.48,630.0,0.05,0.5,0.01,0.1,63.0,6.3,0.01
01:12:20,5.1520,0.0093,0.6602,0.2002,95.86,96.49,640.0,0.05,0.5,0.01,0.1,64.0,6.4,0.01
01:12:30,5.1520,0.0092,0.6603,0.2002,95.88,96.51,650.0,0.05,0.5,0.01,0.1,65.0,6.5,0.01
01:12:40,5.0980,0.0294,0.6607,0.2003,95.94,96.55,654.0,0.15,1.5,0.02,0.2,65.4,6.54,0.02
01:12:50,5.1520,0.0093,0.6608,0.2003,95.96,96.56,653.0,0.05,0.5,0.01,0.1,65.3,6.53,0.01
01:13:00,5.1520,0.0089,0.6610,0.2003,95.98,96.57,650.0,0.05,0.5,0.01,0.1,65.0,6.5,0.01
01:13:10,3.9040,0.3295,0.6645,0.2012,96.50,97.01,644.0,1.29,12.9,0.14,1.4,64.4,6.44,0.15
01:13:20,5.1510,0.0650,0.6655,0.2014,96.64,97.10,644.0,0.33,3.3,0.03,0.3,64.4,6.44,0.04
01:13:30,5.1520,0.0092,0.6656,0.2014,96.65,97.11,645.0,0.05,0.5,0.01,0.1,64.5,6.45,0.01
01:13:40,5.1520,0.0093,0.6657,0.2015,96.67,97.12,643.0,0.05,0.5,0.01,0.1,64.3,6.43,0.01
01:13:50,4.0170,0.2659,0.6687,0.2022,97.10,97.48,639.0,1.07,10.7,0.11,1.1,63.9,6.39,0.13
01:14:00,5.1520,0.0092,0.6688,0.2022,97.12,97.49,633.0,0.05,0.5,0.01,0.1,63.3,6.33,0.01
01:14:10,5.1520,0.0093,0.6690,0.2023,97.14,97.50,629.0,0.05,0.5,0.01,0.1,62.9,6.29,0.01
01:14:20,5.1520,0.0213,0.6693,0.2023,97.19,97.53,628.0,0.11,1.1,0.01,0.1,62.8,6.28,0.01
01:14:30,5.1520,0.0089,0.6694,0.2023,97.21,97.54,618.0,0.05,0.5,0.01,0.1,61.8,6.18,0.01
01:14:40,4.1460,0.2419,0.6722,0.2030,97.61,97.87,609.0,1.0,10.0,0.11,1.1,60.9,6.09,0.12
01:14:50,5.1520,0.0092,0.6723,0.2030,97.63,97.88,604.0,0.05,0.5,0.01,0.1,60.4,6.04,0.01
01:15:00,3.4920,0.3532,0.6757,0.2040,98.13,98.35,604.0,1.23,12.3,0.13,1.3,60.4,6.04,0.15
01:15:10,5.1520,0.0092,0.6759,0.2040,98.15,98.37,605.0,0.05,0.5,0.01,0.1,60.5,6.05,0.01
01:15:20,5.1520,0.0093,0.6760,0.2041,98.17,98.38,602.0,0.05,0.5,0.01,0.1,60.2,6.02,0.01
01:15:30,3.5530,0.3376,0.6793,0.2050,98.65,98.83,603.0,1.2,12.0,0.13,1.3,60.3,6.03,0.15
01:15:40,5.1520,0.0092,0.6795,0.2050,98.67,98.84,599.0,0.05,0.5,0.01,0.1,59.9,5.99,0.01
01:15:50,5.1520,0.0086,0.6796,0.2051,98.69,98.85,598.0,0.04,0.4,0.0,0.0,59.8,5.98,0.01
01:16:00,3.8820,0.2962,0.6828,0.2059,99.15,99.25,606.0,1.15,11.5,0.12,1.2,60.6,6.06,0.14
01:16:10,5.1520,0.0088,0.6829,0.2059,99.17,99.26,607.0,0.05,0.5,0.01,0.1,60.7,6.07,0.01
01:16:20,4.4050,0.2206,0.6856,0.2065,99.56,99.56,610.0,0.97,9.7,0.1,1.0,61.0,6.1,0.12
01:16:30,5.1520,0.0092,0.6857,0.2065,99.58,99.57,608.0,0.05,0.5,0.01,0.1,60.8,6.08,0.01
01:16:40,3.2460,0.3212,0.6886,0.2074,100.00,100.00,604.0,1.04,10.4,0.11,1.1,60.4,6.04,0.13
01:16:50,5.1520,0.0092,0.6888,0.2075,100.02,100.01,598.0,0.05,0.5,0.01,0.1,59.8,5.98,0.01