File: output/5/solarcamp-2.csv
Time,Voltage(V),Current(A),Energy(Wh),Capacity(Ah),Energy Proportion(%),Capacity Proportion(%),Irradiance(W/m2),Power(W),Power Score,Watts/oz,cW/oz,Sun Score,Irradiance/100,Efficiency(%)
00:00:00,5.1380,0.0626,0.0009,0.0002,0.17,0.13,806.0,0.32,3.2,0.03,0.3,80.6,8.06,0.03
00:00:10,5.1480,0.0897,0.0022,0.0004,0.41,0.32,808.0,0.46,4.6,0.05,0.5,80.8,8.08,0.04
00:00:20,4.2570,0.4183,0.0071,0.0016,1.33,1.21,802.0,1.78,17.8,0.19,1.9,80.2,8.02,0.17
00:00:30,5.1490,0.0093,0.0073,0.0016,1.35,1.23,804.0,0.05,0.5,0.01,0.1,80.4,8.04,0.0
00:00:40,5.1490,0.0092,0.0074,0.0016,1.38,1.25,802.0,0.05,0.5,0.01,0.1,80.2,8.02,0.0
00:00:50,5.1490,0.0093,0.0075,0.0017,1.40,1.27,800.0,0.05,0.5,0.01,0.1,80.0,8.0,0.0
00:01:00,5.1490,0.0093,0.0077,0.0017,1.43,1.29,799.0,0.05,0.5,0.01,0.1,79.9,7.99,0.0
00:01:10,5.1490,0.0093,0.0078,0.0017,1.45,1.31,797.0,0.05,0.5,0.01,0.1,79.7,7.97,0.0
00:01:20,5.1490,0.0092,0.0079,0.0017,1.48,1.33,796.0,0.05,0.5,0.01,0.1,79.6,7.96,0.0
00:01:30,5.1490,0.0092,0.0080,0.0018,1.50,1.34,795.0,0.05,0.5,0.01,0.1,79.5,7.95,0.0
00:01:40,5.1490,0.0093,0.0082,0.0018,1.53,1.36,798.0,0.05,0.5,0.01,0.1,79.8,7.98,0.0
00:01:50,4.3690,0.3002,0.0118,0.0026,2.21,2.00,798.0,1.31,13.1,0.14,1.4,79.8,7.98,0.12
00:02:00,4.9130,0.1822,0.0143,0.0031,2.67,2.39,799.0,0.9,9.0,0.1,1.0,79.9,7.99,0.08
00:02:10,5.0640,0.2553,0.0179,0.0038,3.34,2.93,797.0,1.29,12.9,0.14,1.4,79.7,7.97,0.12
00:02:20,5.1500,0.0092,0.0180,0.0039,3.36,2.95,794.0,0.05,0.5,0.01,0.1,79.4,7.94,0.0
00:02:30,5.1500,0.0092,0.0182,0.0039,3.39,2.96,794.0,0.05,0.5,0.01,0.1,79.4,7.94,0.0
00:02:40,5.1500,0.0093,0.0183,0.0039,3.41,2.98,790.0,0.05,0.5,0.01,0.1,79.0,7.9,0.0
00:02:50,5.1500,0.0092,0.0184,0.0039,3.44,3.00,788.0,0.05,0.5,0.01,0.1,78.8,7.88,0.0
00:03:00,5.1310,0.0690,0.0194,0.0041,3.62,3.15,790.0,0.35,3.5,0.04,0.4,79.0,7.9,0.03
00:03:10,5.1500,0.0093,0.0195,0.0042,3.65,3.17,791.0,0.05,0.5,0.01,0.1,79.1,7.91,0.0
00:03:20,5.1500,0.0093,0.0197,0.0042,3.67,3.19,790.0,0.05,0.5,0.01,0.1,79.0,7.9,0.0
00:03:30,4.5270,0.2446,0.0228,0.0049,4.24,3.71,786.0,1.11,11.1,0.12,1.2,78.6,7.86,0.11
00:03:40,5.1500,0.0093,0.0229,0.0049,4.27,3.73,790.0,0.05,0.5,0.01,0.1,79.0,7.9,0.0
00:03:50,5.1500,0.0091,0.0230,0.0049,4.29,3.75,786.0,0.05,0.5,0.01,0.1,78.6,7.86,0.0
00:04:00,5.1500,0.0093,0.0232,0.0049,4.32,3.77,788.0,0.05,0.5,0.01,0.1,78.8,7.88,0.0
00:04:10,5.1500,0.0093,0.0233,0.0050,4.34,3.79,790.0,0.05,0.5,0.01,0.1,79.0,7.9,0.0
00:04:20,4.9380,0.1281,0.0250,0.0053,4.67,4.06,790.0,0.63,6.3,0.07,0.7,79.0,7.9,0.06
00:04:30,4.4000,0.2915,0.0286,0.0061,5.34,4.67,792.0,1.28,12.8,0.14,1.4,79.2,7.92,0.12
00:04:40,5.1500,0.0094,0.0287,0.0062,5.36,4.69,790.0,0.05,0.5,0.01,0.1,79.0,7.9,0.0
00:04:50,5.1460,0.0337,0.0292,0.0063,5.45,4.76,792.0,0.17,1.7,0.02,0.2,79.2,7.92,0.02
00:05:00,5.1500,0.0309,0.0297,0.0063,5.53,4.83,792.0,0.16,1.6,0.02,0.2,79.2,7.92,0.02
00:05:10,4.5280,0.2494,0.0328,0.0070,6.12,5.36,794.0,1.13,11.3,0.12,1.2,79.4,7.94,0.11
00:05:20,4.1710,0.5010,0.0386,0.0084,7.20,6.42,790.0,2.09,20.9,0.22,2.2,79.0,7.9,0.2
00:05:30,4.2800,0.4421,0.0439,0.0097,8.18,7.35,792.0,1.89,18.9,0.2,2.0,79.2,7.92,0.18
00:05:40,4.4860,0.3594,0.0483,0.0107,9.02,8.11,792.0,1.61,16.1,0.17,1.7,79.2,7.92,0.15
00:05:50,5.1480,0.1283,0.0502,0.0110,9.36,8.39,791.0,0.66,6.6,0.07,0.7,79.1,7.91,0.06
00:06:00,4.0550,0.5155,0.0560,0.0124,10.44,9.48,792.0,2.09,20.9,0.22,2.2,79.2,7.92,0.2
00:06:10,4.3670,0.3609,0.0604,0.0134,11.26,10.24,792.0,1.58,15.8,0.17,1.7,79.2,7.92,0.15
00:06:20,5.1450,0.1172,0.0620,0.0138,11.57,10.49,792.0,0.6,6.0,0.06,0.6,79.2,7.92,0.06
00:06:30,5.1490,0.0376,0.0626,0.0139,11.67,10.57,793.0,0.19,1.9,0.02,0.2,79.3,7.93,0.02
00:06:40,2.6490,0.5467,0.0666,0.0154,12.42,11.73,795.0,1.45,14.5,0.15,1.5,79.5,7.95,0.14
00:06:50,4.2210,0.2770,0.0698,0.0162,13.03,12.31,793.0,1.17,11.7,0.12,1.2,79.3,7.93,0.11
00:07:00,4.3540,0.3672,0.0743,0.0172,13.85,13.09,794.0,1.6,16.0,0.17,1.7,79.4,7.94,0.15
00:07:10,5.1500,0.0092,0.0744,0.0172,13.88,13.11,797.0,0.05,0.5,0.01,0.1,79.7,7.97,0.0
00:07:20,5.1500,0.0092,0.0745,0.0172,13.90,13.13,796.0,0.05,0.5,0.01,0.1,79.6,7.96,0.0
00:07:30,5.1500,0.0094,0.0747,0.0173,13.93,13.15,795.0,0.05,0.5,0.01,0.1,79.5,7.95,0.0
00:07:40,5.1500,0.0269,0.0751,0.0173,14.00,13.20,793.0,0.14,1.4,0.01,0.1,79.3,7.93,0.01
00:07:50,5.1500,0.0093,0.0752,0.0174,14.03,13.22,791.0,0.05,0.5,0.01,0.1,79.1,7.91,0.0
00:08:00,5.1450,0.0092,0.0753,0.0174,14.05,13.24,794.0,0.05,0.5,0.01,0.1,79.4,7.94,0.0
00:08:10,4.7940,0.1602,0.0775,0.0178,14.45,13.58,790.0,0.77,7.7,0.08,0.8,79.0,7.9,0.07
00:08:20,3.8510,0.5092,0.0829,0.0192,15.46,14.66,789.0,1.96,19.6,0.21,2.1,78.9,7.89,0.19
00:08:30,4.6250,0.3194,0.0870,0.0201,16.23,15.34,788.0,1.48,14.8,0.16,1.6,78.8,7.88,0.14
00:08:40,4.1120,0.4195,0.0918,0.0213,17.12,16.22,787.0,1.72,17.2,0.18,1.8,78.7,7.87,0.16
00:08:50,4.3100,0.3918,0.0965,0.0224,18.00,17.05,789.0,1.69,16.9,0.18,1.8,78.9,7.89,0.16
00:09:00,4.9620,0.2141,0.0994,0.0230,18.55,17.51,789.0,1.06,10.6,0.11,1.1,78.9,7.89,0.1
00:09:10,5.1490,0.0495,0.1002,0.0231,18.68,17.61,791.0,0.25,2.5,0.03,0.3,79.1,7.91,0.02
00:09:20,5.1500,0.0235,0.1005,0.0232,18.74,17.66,786.0,0.12,1.2,0.01,0.1,78.6,7.86,0.01
00:09:30,5.1500,0.0092,0.1006,0.0232,18.77,17.68,790.0,0.05,0.5,0.01,0.1,79.0,7.9,0.0
00:09:40,5.1500,0.0093,0.1008,0.0232,18.79,17.70,791.0,0.05,0.5,0.01,0.1,79.1,7.91,0.0
00:09:50,5.1500,0.0092,0.1009,0.0233,18.82,17.72,792.0,0.05,0.5,0.01,0.1,79.2,7.92,0.0
00:10:00,5.1500,0.0093,0.1010,0.0233,18.84,17.74,793.0,0.05,0.5,0.01,0.1,79.3,7.93,0.0
00:10:10,5.1500,0.0094,0.1012,0.0233,18.87,17.76,792.0,0.05,0.5,0.01,0.1,79.2,7.92,0.0
00:10:20,5.1500,0.0092,0.1013,0.0233,18.89,17.78,791.0,0.05,0.5,0.01,0.1,79.1,7.91,0.0
00:10:30,5.1500,0.0093,0.1014,0.0234,18.92,17.80,791.0,0.05,0.5,0.01,0.1,79.1,7.91,0.0
00:10:40,5.1500,0.0093,0.1016,0.0234,18.94,17.82,790.0,0.05,0.5,0.01,0.1,79.0,7.9,0.0
00:10:50,5.0680,0.2169,0.1046,0.0240,19.51,18.28,790.0,1.1,11.0,0.12,1.2,79.0,7.9,0.1
00:11:00,5.1470,0.1196,0.1063,0.0243,19.83,18.53,792.0,0.62,6.2,0.07,0.7,79.2,7.92,0.06
00:11:10,5.1480,0.0814,0.1075,0.0245,20.05,18.70,794.0,0.42,4.2,0.04,0.4,79.4,7.94,0.04
00:11:20,5.1490,0.0374,0.1080,0.0247,20.15,18.78,789.0,0.19,1.9,0.02,0.2,78.9,7.89,0.02
00:11:30,5.1490,0.1211,0.1097,0.0250,20.47,19.04,790.0,0.62,6.2,0.07,0.7,79.0,7.9,0.06
00:11:40,5.1500,0.0093,0.1099,0.0250,20.49,19.06,792.0,0.05,0.5,0.01,0.1,79.2,7.92,0.0
00:11:50,5.1500,0.0093,0.1100,0.0250,20.52,19.08,794.0,0.05,0.5,0.01,0.1,79.4,7.94,0.0
00:12:00,5.1500,0.0093,0.1101,0.0251,20.54,19.10,792.0,0.05,0.5,0.01,0.1,79.2,7.92,0.0
00:12:10,3.4240,0.5362,0.1152,0.0266,21.50,20.23,797.0,1.84,18.4,0.19,1.9,79.7,7.97,0.17
00:12:20,5.1500,0.0093,0.1154,0.0266,21.52,20.25,800.0,0.05,0.5,0.01,0.1,80.0,8.0,0.0
00:12:30,5.1500,0.0093,0.1155,0.0266,21.54,20.27,798.0,0.05,0.5,0.01,0.1,79.8,7.98,0.0
00:12:40,5.1500,0.0093,0.1156,0.0266,21.57,20.29,796.0,0.05,0.5,0.01,0.1,79.6,7.96,0.0
00:12:50,5.1500,0.0093,0.1158,0.0267,21.59,20.31,792.0,0.05,0.5,0.01,0.1,79.2,7.92,0.0
00:13:00,5.1500,0.0092,0.1159,0.0267,21.62,20.33,790.0,0.05,0.5,0.01,0.1,79.0,7.9,0.0
00:13:10,5.1500,0.0093,0.1160,0.0267,21.64,20.35,789.0,0.05,0.5,0.01,0.1,78.9,7.89,0.0
00:13:20,5.1500,0.0092,0.1162,0.0267,21.67,20.37,792.0,0.05,0.5,0.01,0.1,79.2,7.92,0.0
00:13:30,5.1500,0.0093,0.1163,0.0268,21.69,20.39,796.0,0.05,0.5,0.01,0.1,79.6,7.96,0.0
00:13:40,5.1490,0.0093,0.1164,0.0268,21.72,20.41,797.0,0.05,0.5,0.01,0.1,79.7,7.97,0.0
00:13:50,3.1740,0.6447,0.1221,0.0286,22.78,21.77,797.0,2.05,20.5,0.22,2.2,79.7,7.97,0.19
00:14:00,5.1500,0.0093,0.1223,0.0286,22.80,21.79,798.0,0.05,0.5,0.01,0.1,79.8,7.98,0.0
00:14:10,5.1500,0.0093,0.1224,0.0286,22.83,21.81,796.0,0.05,0.5,0.01,0.1,79.6,7.96,0.0
00:14:20,5.1500,0.0093,0.1225,0.0287,22.85,21.83,792.0,0.05,0.5,0.01,0.1,79.2,7.92,0.0
00:14:30,4.4060,0.4096,0.1275,0.0298,23.79,22.70,783.0,1.8,18.0,0.19,1.9,78.3,7.83,0.17
00:14:40,5.1500,0.0092,0.1277,0.0298,23.81,22.72,782.0,0.05,0.5,0.01,0.1,78.2,7.82,0.0
00:14:50,5.1440,0.0213,0.1280,0.0299,23.87,22.76,784.0,0.11,1.1,0.01,0.1,78.4,7.84,0.01
00:15:00,5.1500,0.0093,0.1281,0.0299,23.89,22.78,779.0,0.05,0.5,0.01,0.1,77.9,7.79,0.0
00:15:10,5.1500,0.0093,0.1282,0.0299,23.92,22.80,786.0,0.05,0.5,0.01,0.1,78.6,7.86,0.0
00:15:20,5.1370,0.0490,0.1289,0.0301,24.05,22.91,790.0,0.25,2.5,0.03,0.3,79.0,7.9,0.02
00:15:30,3.8420,0.4927,0.1342,0.0314,25.03,23.95,789.0,1.89,18.9,0.2,2.0,78.9,7.89,0.18
00:15:40,5.1500,0.0093,0.1343,0.0315,25.05,23.97,785.0,0.05,0.5,0.01,0.1,78.5,7.85,0.0
00:15:50,5.1500,0.0093,0.1345,0.0315,25.08,23.99,787.0,0.05,0.5,0.01,0.1,78.7,7.87,0.0
00:16:00,5.1500,0.0092,0.1346,0.0315,25.10,24.01,792.0,0.05,0.5,0.01,0.1,79.2,7.92,0.0
00:16:10,5.1500,0.0092,0.1347,0.0315,25.13,24.03,794.0,0.05,0.5,0.01,0.1,79.4,7.94,0.0
00:16:20,4.6200,0.3294,0.1390,0.0325,25.92,24.72,794.0,1.52,15.2,0.16,1.6,79.4,7.94,0.14
00:16:30,4.1160,0.4491,0.1441,0.0337,26.87,25.67,793.0,1.85,18.5,0.2,2.0,79.3,7.93,0.18
00:16:40,5.1500,0.0092,0.1442,0.0337,26.90,25.69,797.0,0.05,0.5,0.01,0.1,79.7,7.97,0.0
00:16:50,5.1500,0.0093,0.1444,0.0338,26.92,25.71,795.0,0.05,0.5,0.01,0.1,79.5,7.95,0.0
00:17:00,4.4460,0.2794,0.1478,0.0345,27.57,26.31,798.0,1.24,12.4,0.13,1.3,79.8,7.98,0.12
00:17:10,3.2410,0.5844,0.1531,0.0361,28.55,27.54,796.0,1.89,18.9,0.2,2.0,79.6,7.96,0.18
00:17:20,5.1450,0.1004,0.1545,0.0364,28.82,27.75,795.0,0.52,5.2,0.06,0.6,79.5,7.95,0.05
00:17:30,5.1500,0.0092,0.1546,0.0365,28.84,27.77,795.0,0.05,0.5,0.01,0.1,79.5,7.95,0.0
00:17:40,5.1500,0.0093,0.1548,0.0365,28.87,27.79,795.0,0.05,0.5,0.01,0.1,79.5,7.95,0.0
00:17:50,3.8600,0.4175,0.1592,0.0376,29.70,28.68,794.0,1.61,16.1,0.17,1.7,79.4,7.94,0.15
00:18:00,5.1500,0.0092,0.1594,0.0377,29.73,28.70,792.0,0.05,0.5,0.01,0.1,79.2,7.92,0.0
00:18:10,5.1500,0.0092,0.1595,0.0377,29.75,28.72,791.0,0.05,0.5,0.01,0.1,79.1,7.91,0.0
00:18:20,5.1500,0.0092,0.1596,0.0377,29.77,28.74,792.0,0.05,0.5,0.01,0.1,79.2,7.92,0.0
00:18:30,5.1500,0.0093,0.1598,0.0377,29.80,28.76,792.0,0.05,0.5,0.01,0.1,79.2,7.92,0.0
00:18:40,5.1500,0.0093,0.1599,0.0378,29.82,28.78,793.0,0.05,0.5,0.01,0.1,79.3,7.93,0.0
00:18:50,5.1500,0.0094,0.1600,0.0378,29.85,28.79,793.0,0.05,0.5,0.01,0.1,79.3,7.93,0.0
00:19:00,5.1390,0.0760,0.1611,0.0380,30.05,28.96,794.0,0.39,3.9,0.04,0.4,79.4,7.94,0.04
00:19:10,4.0710,0.3110,0.1646,0.0389,30.71,29.61,792.0,1.27,12.7,0.13,1.3,79.2,7.92,0.12
00:19:20,4.0820,0.4680,0.1699,0.0402,31.70,30.60,788.0,1.91,19.1,0.2,2.0,78.8,7.88,0.18
00:19:30,4.8480,0.1342,0.1718,0.0405,32.03,30.89,786.0,0.65,6.5,0.07,0.7,78.6,7.86,0.06
00:19:40,4.3840,0.2662,0.1750,0.0413,32.64,31.45,790.0,1.17,11.7,0.12,1.2,79.0,7.9,0.11
00:19:50,4.5240,0.2457,0.1781,0.0420,33.21,31.97,793.0,1.11,11.1,0.12,1.2,79.3,7.93,0.11
00:20:00,4.3010,0.4140,0.1830,0.0431,34.14,32.85,789.0,1.78,17.8,0.19,1.9,78.9,7.89,0.17
00:20:10,4.2580,0.3559,0.1872,0.0441,34.92,33.60,782.0,1.52,15.2,0.16,1.6,78.2,7.82,0.15
00:20:20,4.9440,0.2401,0.1905,0.0448,35.54,34.11,782.0,1.19,11.9,0.13,1.3,78.2,7.82,0.11
00:20:30,5.1490,0.0375,0.1911,0.0449,35.64,34.19,777.0,0.19,1.9,0.02,0.2,77.7,7.77,0.02
00:20:40,5.1490,0.0122,0.1912,0.0449,35.67,34.21,779.0,0.06,0.6,0.01,0.1,77.9,7.79,0.01
00:20:50,4.2990,0.4596,0.1967,0.0462,36.69,35.19,779.0,1.98,19.8,0.21,2.1,77.9,7.79,0.19
00:21:00,4.8230,0.2612,0.2002,0.0469,37.35,35.74,793.0,1.26,12.6,0.13,1.3,79.3,7.93,0.12
00:21:10,5.1500,0.0235,0.2006,0.0470,37.41,35.79,794.0,0.12,1.2,0.01,0.1,79.4,7.94,0.01
00:21:20,5.1500,0.0093,0.2007,0.0470,37.43,35.81,791.0,0.05,0.5,0.01,0.1,79.1,7.91,0.0
00:21:30,5.1500,0.0093,0.2008,0.0470,37.46,35.83,792.0,0.05,0.5,0.01,0.1,79.2,7.92,0.0
00:21:40,5.1500,0.0093,0.2010,0.0471,37.48,35.85,792.0,0.05,0.5,0.01,0.1,79.2,7.92,0.0
00:21:50,5.1500,0.0093,0.2011,0.0471,37.51,35.87,795.0,0.05,0.5,0.01,0.1,79.5,7.95,0.0
00:22:00,5.1500,0.0093,0.2012,0.0471,37.53,35.89,796.0,0.05,0.5,0.01,0.1,79.6,7.96,0.0
00:22:10,5.1390,0.0671,0.2022,0.0473,37.71,36.03,797.0,0.34,3.4,0.04,0.4,79.7,7.97,0.03
00:22:20,3.9080,0.3723,0.2062,0.0483,38.47,36.82,795.0,1.45,14.5,0.15,1.5,79.5,7.95,0.14
00:22:30,4.3180,0.4297,0.2114,0.0495,39.43,37.73,795.0,1.86,18.6,0.2,2.0,79.5,7.95,0.18
00:22:40,4.6170,0.2704,0.2149,0.0503,40.07,38.30,795.0,1.25,12.5,0.13,1.3,79.5,7.95,0.12
00:22:50,5.1500,0.0093,0.2150,0.0503,40.10,38.32,796.0,0.05,0.5,0.01,0.1,79.6,7.96,0.0
00:23:00,5.1500,0.0093,0.2151,0.0503,40.12,38.34,795.0,0.05,0.5,0.01,0.1,79.5,7.95,0.0
00:23:10,5.1500,0.0093,0.2153,0.0503,40.15,38.36,796.0,0.05,0.5,0.01,0.1,79.6,7.96,0.0
00:23:20,5.1500,0.0092,0.2154,0.0504,40.17,38.38,794.0,0.05,0.5,0.01,0.1,79.4,7.94,0.0
00:23:30,5.1500,0.0093,0.2155,0.0504,40.20,38.40,796.0,0.05,0.5,0.01,0.1,79.6,7.96,0.0
00:23:40,5.1500,0.0094,0.2157,0.0504,40.22,38.42,795.0,0.05,0.5,0.01,0.1,79.5,7.95,0.0
00:23:50,4.2980,0.3173,0.2194,0.0513,40.93,39.09,797.0,1.36,13.6,0.14,1.4,79.7,7.97,0.13
00:24:00,5.1500,0.0093,0.2196,0.0513,40.95,39.11,795.0,0.05,0.5,0.01,0.1,79.5,7.95,0.0
00:24:10,5.1500,0.0093,0.2197,0.0514,40.98,39.13,793.0,0.05,0.5,0.01,0.1,79.3,7.93,0.0
00:24:20,2.6280,0.4896,0.2233,0.0527,41.65,40.16,796.0,1.29,12.9,0.14,1.4,79.6,7.96,0.12
00:24:30,4.9010,0.2022,0.2260,0.0533,42.16,40.59,792.0,0.99,9.9,0.1,1.0,79.2,7.92,0.09
00:24:40,5.1500,0.0093,0.2262,0.0533,42.18,40.61,794.0,0.05,0.5,0.01,0.1,79.4,7.94,0.0
00:24:50,5.1500,0.0093,0.2263,0.0533,42.21,40.63,794.0,0.05,0.5,0.01,0.1,79.4,7.94,0.0
00:25:00,5.1500,0.0093,0.2264,0.0534,42.23,40.65,794.0,0.05,0.5,0.01,0.1,79.4,7.94,0.0
00:25:10,4.2630,0.3767,0.2309,0.0544,43.07,41.45,794.0,1.61,16.1,0.17,1.7,79.4,7.94,0.15
00:25:20,4.3040,0.3962,0.2356,0.0555,43.95,42.29,785.0,1.71,17.1,0.18,1.8,78.5,7.85,0.16
00:25:30,5.1490,0.1264,0.2374,0.0559,44.29,42.56,787.0,0.65,6.5,0.07,0.7,78.7,7.87,0.06
00:25:40,5.1500,0.0093,0.2376,0.0559,44.31,42.57,788.0,0.05,0.5,0.01,0.1,78.8,7.88,0.0
00:25:50,5.1500,0.0092,0.2377,0.0559,44.34,42.59,785.0,0.05,0.5,0.01,0.1,78.5,7.85,0.0
00:26:00,5.1500,0.0092,0.2378,0.0559,44.36,42.61,785.0,0.05,0.5,0.01,0.1,78.5,7.85,0.0
00:26:10,5.1500,0.0093,0.2380,0.0560,44.38,42.63,785.0,0.05,0.5,0.01,0.1,78.5,7.85,0.0
00:26:20,4.5430,0.1898,0.2404,0.0565,44.83,43.04,782.0,0.86,8.6,0.09,0.9,78.2,7.82,0.08
00:26:30,4.9890,0.1214,0.2420,0.0568,45.14,43.29,786.0,0.61,6.1,0.06,0.6,78.6,7.86,0.06
00:26:40,5.1500,0.0093,0.2422,0.0568,45.17,43.31,783.0,0.05,0.5,0.01,0.1,78.3,7.83,0.0
00:26:50,5.1500,0.0093,0.2423,0.0569,45.19,43.33,786.0,0.05,0.5,0.01,0.1,78.6,7.86,0.0
00:27:00,5.1500,0.0093,0.2424,0.0569,45.22,43.35,787.0,0.05,0.5,0.01,0.1,78.7,7.87,0.0
00:27:10,5.1500,0.0092,0.2426,0.0569,45.24,43.37,788.0,0.05,0.5,0.01,0.1,78.8,7.88,0.0
00:27:20,5.1500,0.0093,0.2427,0.0570,45.27,43.39,793.0,0.05,0.5,0.01,0.1,79.3,7.93,0.0
00:27:30,5.1500,0.0093,0.2428,0.0570,45.29,43.41,791.0,0.05,0.5,0.01,0.1,79.1,7.91,0.0
00:27:40,5.1500,0.0093,0.2430,0.0570,45.32,43.43,792.0,0.05,0.5,0.01,0.1,79.2,7.92,0.0
00:27:50,5.1500,0.0093,0.2431,0.0570,45.34,43.45,796.0,0.05,0.5,0.01,0.1,79.6,7.96,0.0
00:28:00,5.1500,0.0092,0.2432,0.0571,45.37,43.47,798.0,0.05,0.5,0.01,0.1,79.8,7.98,0.0
00:28:10,3.7720,0.2973,0.2464,0.0579,45.95,44.10,796.0,1.12,11.2,0.12,1.2,79.6,7.96,0.11
00:28:20,5.1470,0.1172,0.2480,0.0582,46.26,44.35,796.0,0.6,6.0,0.06,0.6,79.6,7.96,0.06
00:28:30,4.3050,0.3222,0.2519,0.0591,46.98,45.03,795.0,1.39,13.9,0.15,1.5,79.5,7.95,0.13
00:28:40,5.1500,0.0093,0.2520,0.0591,47.00,45.05,799.0,0.05,0.5,0.01,0.1,79.9,7.99,0.0
00:28:50,5.1500,0.0093,0.2522,0.0592,47.03,45.07,797.0,0.05,0.5,0.01,0.1,79.7,7.97,0.0
00:29:00,3.8770,0.3754,0.2562,0.0602,47.78,45.86,795.0,1.46,14.6,0.15,1.5,79.5,7.95,0.14
00:29:10,5.1500,0.0093,0.2563,0.0602,47.81,45.88,797.0,0.05,0.5,0.01,0.1,79.7,7.97,0.0
00:29:20,5.1500,0.0093,0.2565,0.0602,47.83,45.90,795.0,0.05,0.5,0.01,0.1,79.5,7.95,0.0
00:29:30,2.7610,0.4840,0.2602,0.0616,48.53,46.93,795.0,1.34,13.4,0.14,1.4,79.5,7.95,0.13
00:29:40,5.1500,0.0093,0.2603,0.0616,48.55,46.95,794.0,0.05,0.5,0.01,0.1,79.4,7.94,0.0
00:29:50,5.1500,0.0093,0.2604,0.0616,48.58,46.96,797.0,0.05,0.5,0.01,0.1,79.7,7.97,0.0
00:30:00,4.5430,0.2446,0.2635,0.0623,49.15,47.48,799.0,1.11,11.1,0.12,1.2,79.9,7.99,0.1
00:30:10,5.1500,0.0093,0.2637,0.0623,49.18,47.50,799.0,0.05,0.5,0.01,0.1,79.9,7.99,0.0
00:30:20,5.1500,0.0094,0.2638,0.0624,49.20,47.52,801.0,0.05,0.5,0.01,0.1,80.1,8.01,0.0
00:30:30,4.2470,0.2452,0.2667,0.0631,49.74,48.04,802.0,1.04,10.4,0.11,1.1,80.2,8.02,0.1
00:30:40,5.1500,0.0092,0.2668,0.0631,49.76,48.06,805.0,0.05,0.5,0.01,0.1,80.5,8.05,0.0
00:30:50,5.1500,0.0092,0.2669,0.0631,49.79,48.08,805.0,0.05,0.5,0.01,0.1,80.5,8.05,0.0
00:31:00,5.1500,0.0093,0.2671,0.0631,49.81,48.10,809.0,0.05,0.5,0.01,0.1,80.9,8.09,0.0
00:31:10,3.0210,0.5020,0.2713,0.0645,50.60,49.16,813.0,1.52,15.2,0.16,1.6,81.3,8.13,0.14
00:31:20,5.1500,0.0092,0.2714,0.0646,50.62,49.18,814.0,0.05,0.5,0.01,0.1,81.4,8.14,0.0
00:31:30,5.1500,0.0093,0.2716,0.0646,50.65,49.20,813.0,0.05,0.5,0.01,0.1,81.3,8.13,0.0
00:31:40,3.4340,0.3908,0.2753,0.0657,51.34,50.03,710.0,1.34,13.4,0.14,1.4,71.0,7.1,0.14
00:31:50,5.1450,0.0889,0.2766,0.0659,51.58,50.22,723.0,0.46,4.6,0.05,0.5,72.3,7.23,0.05
00:32:00,5.1500,0.0093,0.2767,0.0659,51.61,50.24,280.0,0.05,0.5,0.01,0.1,28.0,2.8,0.01
00:32:10,4.0980,0.2304,0.2793,0.0666,52.10,50.72,768.0,0.94,9.4,0.1,1.0,76.8,7.68,0.09
00:32:20,4.2390,0.1629,0.2812,0.0670,52.45,51.07,383.0,0.69,6.9,0.07,0.7,38.3,3.83,0.14
00:32:30,5.1500,0.0091,0.2814,0.0671,52.48,51.09,662.0,0.05,0.5,0.01,0.1,66.2,6.62,0.01
00:32:40,5.1510,0.0093,0.2815,0.0671,52.50,51.11,542.0,0.05,0.5,0.01,0.1,54.2,5.42,0.01
00:32:50,5.1520,0.0083,0.2816,0.0671,52.52,51.12,193.5,0.04,0.4,0.0,0.0,19.4,1.935,0.02
00:33:00,5.1520,0.0088,0.2817,0.0671,52.55,51.14,115.4,0.05,0.5,0.01,0.1,11.5,1.154,0.03
00:33:10,3.3010,0.1578,0.2832,0.0676,52.82,51.48,112.5,0.52,5.2,0.06,0.6,11.3,1.125,0.35
00:33:20,5.1520,0.0093,0.2833,0.0676,52.84,51.50,110.7,0.05,0.5,0.01,0.1,11.1,1.107,0.03
00:33:30,5.1520,0.0091,0.2834,0.0676,52.87,51.52,113.7,0.05,0.5,0.01,0.1,11.4,1.137,0.03
00:33:40,2.6000,0.1687,0.2847,0.0681,53.09,51.87,118.4,0.44,4.4,0.05,0.5,11.8,1.184,0.28
00:33:50,5.1510,0.0093,0.2848,0.0681,53.12,51.89,119.2,0.05,0.5,0.01,0.1,11.9,1.192,0.03
00:34:00,5.1510,0.0093,0.2849,0.0681,53.14,51.91,121.5,0.05,0.5,0.01,0.1,12.2,1.215,0.03
00:34:10,5.1490,0.0093,0.2851,0.0682,53.17,51.93,289.0,0.05,0.5,0.01,0.1,28.9,2.89,0.01
00:34:20,5.1490,0.0093,0.2852,0.0682,53.19,51.95,658.0,0.05,0.5,0.01,0.1,65.8,6.58,0.01
00:34:30,4.7190,0.3710,0.2901,0.0692,54.10,52.74,812.0,1.75,17.5,0.19,1.9,81.2,8.12,0.16
00:34:40,5.1490,0.0093,0.2902,0.0692,54.13,52.76,813.0,0.05,0.5,0.01,0.1,81.3,8.13,0.0
00:34:50,5.1490,0.0093,0.2903,0.0693,54.15,52.78,809.0,0.05,0.5,0.01,0.1,80.9,8.09,0.0
00:35:00,5.1490,0.0093,0.2905,0.0693,54.18,52.80,790.0,0.05,0.5,0.01,0.1,79.0,7.9,0.0
00:35:10,5.1490,0.0092,0.2906,0.0693,54.20,52.82,795.0,0.05,0.5,0.01,0.1,79.5,7.95,0.0
00:35:20,5.1490,0.0093,0.2907,0.0693,54.22,52.84,743.0,0.05,0.5,0.01,0.1,74.3,7.43,0.01
00:35:30,4.5990,0.5641,0.2979,0.0709,55.57,54.03,811.0,2.59,25.9,0.27,2.7,81.1,8.11,0.24
00:35:40,5.1500,0.0093,0.2981,0.0709,55.59,54.05,550.0,0.05,0.5,0.01,0.1,55.0,5.5,0.01
00:35:50,5.1500,0.0093,0.2982,0.0710,55.62,54.07,334.0,0.05,0.5,0.01,0.1,33.4,3.34,0.01
00:36:00,5.1490,0.0093,0.2983,0.0710,55.64,54.09,570.0,0.05,0.5,0.01,0.1,57.0,5.7,0.01
00:36:10,5.1500,0.0093,0.2985,0.0710,55.67,54.11,384.0,0.05,0.5,0.01,0.1,38.4,3.84,0.01
00:36:20,5.1510,0.0093,0.2986,0.0710,55.69,54.13,191.5,0.05,0.5,0.01,0.1,19.2,1.915,0.02
00:36:30,2.5890,0.1520,0.2997,0.0715,55.90,54.45,135.6,0.39,3.9,0.04,0.4,13.6,1.356,0.22
00:36:40,5.1510,0.0092,0.2998,0.0715,55.92,54.47,131.9,0.05,0.5,0.01,0.1,13.2,1.319,0.03
00:36:50,2.5310,0.1610,0.3010,0.0719,56.13,54.81,135.6,0.41,4.1,0.04,0.4,13.6,1.356,0.23
00:37:00,2.5300,0.1944,0.3023,0.0725,56.39,55.22,139.7,0.49,4.9,0.05,0.5,14.0,1.397,0.26
00:37:10,2.5200,0.2293,0.3039,0.0731,56.69,55.71,146.1,0.58,5.8,0.06,0.6,14.6,1.461,0.3
00:37:20,5.1490,0.0093,0.3041,0.0731,56.71,55.73,267.0,0.05,0.5,0.01,0.1,26.7,2.67,0.01
00:37:30,5.1490,0.0093,0.3042,0.0732,56.74,55.75,790.0,0.05,0.5,0.01,0.1,79.0,7.9,0.0
00:37:40,5.1470,0.1381,0.3062,0.0736,57.10,56.04,801.0,0.71,7.1,0.08,0.8,80.1,8.01,0.07
00:37:50,5.1490,0.0092,0.3063,0.0736,57.13,56.06,798.0,0.05,0.5,0.01,0.1,79.8,7.98,0.0
00:38:00,5.1490,0.0093,0.3064,0.0736,57.15,56.08,793.0,0.05,0.5,0.01,0.1,79.3,7.93,0.0
00:38:10,5.1490,0.0093,0.3066,0.0736,57.18,56.10,787.0,0.05,0.5,0.01,0.1,78.7,7.87,0.0
00:38:20,5.1490,0.0093,0.3067,0.0737,57.20,56.12,789.0,0.05,0.5,0.01,0.1,78.9,7.89,0.0
00:38:30,5.1490,0.0093,0.3068,0.0737,57.23,56.14,791.0,0.05,0.5,0.01,0.1,79.1,7.91,0.0
00:38:40,5.1490,0.0093,0.3070,0.0737,57.25,56.16,790.0,0.05,0.5,0.01,0.1,79.0,7.9,0.0
00:38:50,3.7690,0.5416,0.3126,0.0752,58.31,57.30,791.0,2.04,20.4,0.22,2.2,79.1,7.91,0.19
00:39:00,5.1490,0.0093,0.3128,0.0752,58.34,57.32,791.0,0.05,0.5,0.01,0.1,79.1,7.91,0.0
00:39:10,5.1490,0.0093,0.3129,0.0753,58.36,57.34,789.0,0.05,0.5,0.01,0.1,78.9,7.89,0.0
00:39:20,4.2000,0.3611,0.3171,0.0763,59.15,58.11,789.0,1.52,15.2,0.16,1.6,78.9,7.89,0.14
00:39:30,5.1500,0.0093,0.3172,0.0763,59.17,58.13,789.0,0.05,0.5,0.01,0.1,78.9,7.89,0.0
00:39:40,5.1500,0.0093,0.3174,0.0763,59.20,58.15,793.0,0.05,0.5,0.01,0.1,79.3,7.93,0.0
00:39:50,4.9670,0.2542,0.3209,0.0770,59.85,58.68,788.0,1.26,12.6,0.13,1.3,78.8,7.88,0.12
00:40:00,5.1500,0.0093,0.3210,0.0770,59.87,58.70,787.0,0.05,0.5,0.01,0.1,78.7,7.87,0.0
00:40:10,4.1800,0.3892,0.3255,0.0781,60.72,59.53,786.0,1.63,16.3,0.17,1.7,78.6,7.86,0.16
00:40:20,5.1500,0.0093,0.3257,0.0782,60.74,59.55,789.0,0.05,0.5,0.01,0.1,78.9,7.89,0.0
00:40:30,5.1500,0.0094,0.3258,0.0782,60.77,59.57,787.0,0.05,0.5,0.01,0.1,78.7,7.87,0.0
00:40:40,5.1470,0.1188,0.3275,0.0785,61.08,59.82,789.0,0.61,6.1,0.06,0.6,78.9,7.89,0.06
00:40:50,5.1500,0.0093,0.3276,0.0785,61.11,59.84,788.0,0.05,0.5,0.01,0.1,78.8,7.88,0.0
00:41:00,3.5610,0.5875,0.3334,0.0802,62.19,61.08,786.0,2.09,20.9,0.22,2.2,78.6,7.86,0.2
00:41:10,5.1500,0.0093,0.3336,0.0802,62.22,61.10,786.0,0.05,0.5,0.01,0.1,78.6,7.86,0.0
00:41:20,5.1500,0.0093,0.3337,0.0802,62.24,61.12,785.0,0.05,0.5,0.01,0.1,78.5,7.85,0.0
00:41:30,3.5440,0.5656,0.3393,0.0818,63.28,62.32,782.0,2.0,20.0,0.21,2.1,78.2,7.82,0.19
00:41:40,5.1500,0.0092,0.3394,0.0818,63.31,62.34,787.0,0.05,0.5,0.01,0.1,78.7,7.87,0.0
00:41:50,3.5350,0.5948,0.3453,0.0835,64.39,63.60,787.0,2.1,21.0,0.22,2.2,78.7,7.87,0.2
00:42:00,5.1500,0.0092,0.3454,0.0835,64.42,63.61,786.0,0.05,0.5,0.01,0.1,78.6,7.86,0.0
00:42:10,5.1500,0.0093,0.3455,0.0835,64.44,63.63,787.0,0.05,0.5,0.01,0.1,78.7,7.87,0.0
00:42:20,5.0620,0.2577,0.3491,0.0842,65.12,64.18,787.0,1.3,13.0,0.14,1.4,78.7,7.87,0.12
00:42:30,5.1500,0.0093,0.3493,0.0843,65.14,64.20,788.0,0.05,0.5,0.01,0.1,78.8,7.88,0.0
00:42:40,3.4060,0.5941,0.3549,0.0859,66.19,65.46,789.0,2.02,20.2,0.21,2.1,78.9,7.89,0.19
00:42:50,5.1500,0.0093,0.3550,0.0859,66.22,65.48,791.0,0.05,0.5,0.01,0.1,79.1,7.91,0.0
00:43:00,5.1500,0.0093,0.3552,0.0860,66.24,65.50,789.0,0.05,0.5,0.01,0.1,78.9,7.89,0.0
00:43:10,4.1600,0.4626,0.3605,0.0873,67.24,66.48,788.0,1.92,19.2,0.2,2.0,78.8,7.88,0.18
00:43:20,5.1500,0.0093,0.3606,0.0873,67.26,66.49,790.0,0.05,0.5,0.01,0.1,79.0,7.9,0.0
00:43:30,5.1500,0.0094,0.3608,0.0873,67.29,66.51,790.0,0.05,0.5,0.01,0.1,79.0,7.9,0.0
00:43:40,5.1490,0.0208,0.3611,0.0874,67.34,66.56,791.0,0.11,1.1,0.01,0.1,79.1,7.91,0.01
00:43:50,5.1500,0.0093,0.3612,0.0874,67.37,66.58,789.0,0.05,0.5,0.01,0.1,78.9,7.89,0.0
00:44:00,5.1110,0.1624,0.3635,0.0878,67.80,66.92,791.0,0.83,8.3,0.09,0.9,79.1,7.91,0.08
00:44:10,5.1500,0.0093,0.3636,0.0879,67.82,66.94,788.0,0.05,0.5,0.01,0.1,78.8,7.88,0.0
00:44:20,5.1500,0.0093,0.3638,0.0879,67.85,66.96,790.0,0.05,0.5,0.01,0.1,79.0,7.9,0.0
00:44:30,5.1490,0.0739,0.3648,0.0881,68.05,67.12,791.0,0.38,3.8,0.04,0.4,79.1,7.91,0.04
00:44:40,5.1500,0.0093,0.3650,0.0881,68.07,67.14,789.0,0.05,0.5,0.01,0.1,78.9,7.89,0.0
00:44:50,5.1430,0.0651,0.3659,0.0883,68.24,67.28,791.0,0.33,3.3,0.03,0.3,79.1,7.91,0.03
00:45:00,4.0900,0.4454,0.3710,0.0895,69.19,68.22,787.0,1.82,18.2,0.19,1.9,78.7,7.87,0.17
00:45:10,5.1480,0.0945,0.3723,0.0898,69.44,68.42,789.0,0.49,4.9,0.05,0.5,78.9,7.89,0.05
00:45:20,5.1500,0.0092,0.3724,0.0898,69.47,68.44,788.0,0.05,0.5,0.01,0.1,78.8,7.88,0.0
00:45:30,5.1500,0.0093,0.3726,0.0899,69.49,68.46,787.0,0.05,0.5,0.01,0.1,78.7,7.87,0.0
00:45:40,3.8790,0.5420,0.3784,0.0914,70.58,69.60,791.0,2.1,21.0,0.22,2.2,79.1,7.91,0.2
00:45:50,5.1490,0.1038,0.3799,0.0916,70.86,69.82,789.0,0.53,5.3,0.06,0.6,78.9,7.89,0.05
00:46:00,5.1500,0.0093,0.3800,0.0917,70.88,69.84,789.0,0.05,0.5,0.01,0.1,78.9,7.89,0.0
00:46:10,5.1500,0.0092,0.3802,0.0917,70.91,69.86,790.0,0.05,0.5,0.01,0.1,79.0,7.9,0.0
00:46:20,5.1500,0.0093,0.3803,0.0917,70.93,69.88,791.0,0.05,0.5,0.01,0.1,79.1,7.91,0.0
00:46:30,4.9400,0.1380,0.3822,0.0921,71.28,70.17,795.0,0.68,6.8,0.07,0.7,79.5,7.95,0.06
00:46:40,4.1830,0.4444,0.3874,0.0933,72.25,71.12,796.0,1.86,18.6,0.2,2.0,79.6,7.96,0.18
00:46:50,4.5040,0.3528,0.3918,0.0943,73.07,71.86,794.0,1.59,15.9,0.17,1.7,79.4,7.94,0.15
00:47:00,4.4700,0.3037,0.3955,0.0952,73.77,72.50,797.0,1.36,13.6,0.14,1.4,79.7,7.97,0.13
00:47:10,5.1500,0.0235,0.3959,0.0952,73.84,72.55,796.0,0.12,1.2,0.01,0.1,79.6,7.96,0.01
00:47:20,5.1500,0.0092,0.3960,0.0953,73.86,72.57,797.0,0.05,0.5,0.01,0.1,79.7,7.97,0.0
00:47:30,5.1500,0.0092,0.3961,0.0953,73.89,72.59,794.0,0.05,0.5,0.01,0.1,79.4,7.94,0.0
00:47:40,5.1500,0.0093,0.3963,0.0953,73.91,72.61,791.0,0.05,0.5,0.01,0.1,79.1,7.91,0.0
00:47:50,5.1500,0.0093,0.3964,0.0953,73.93,72.63,790.0,0.05,0.5,0.01,0.1,79.0,7.9,0.0
00:48:00,5.1490,0.0093,0.3965,0.0954,73.96,72.65,790.0,0.05,0.5,0.01,0.1,79.0,7.9,0.0
00:48:10,5.1500,0.0093,0.3967,0.0954,73.98,72.67,790.0,0.05,0.5,0.01,0.1,79.0,7.9,0.0
00:48:20,5.1140,0.0800,0.3978,0.0956,74.20,72.84,787.0,0.41,4.1,0.04,0.4,78.7,7.87,0.04
00:48:30,4.8400,0.1694,0.4001,0.0961,74.62,73.20,788.0,0.82,8.2,0.09,0.9,78.8,7.88,0.08
00:48:40,3.5640,0.4624,0.4047,0.0974,75.47,74.18,784.0,1.65,16.5,0.17,1.7,78.4,7.84,0.16
00:48:50,3.3330,0.4981,0.4093,0.0987,76.34,75.23,783.0,1.66,16.6,0.18,1.8,78.3,7.83,0.16
00:49:00,5.1500,0.0093,0.4094,0.0988,76.36,75.25,782.0,0.05,0.5,0.01,0.1,78.2,7.82,0.0
00:49:10,5.1500,0.0092,0.4095,0.0988,76.38,75.27,782.0,0.05,0.5,0.01,0.1,78.2,7.82,0.0
00:49:20,5.1500,0.0094,0.4097,0.0988,76.41,75.29,782.0,0.05,0.5,0.01,0.1,78.2,7.82,0.0
00:49:30,5.1480,0.1367,0.4116,0.0992,76.77,75.58,785.0,0.7,7.0,0.07,0.7,78.5,7.85,0.07
00:49:40,5.1500,0.0092,0.4118,0.0992,76.80,75.60,783.0,0.05,0.5,0.01,0.1,78.3,7.83,0.0
00:49:50,5.1440,0.0474,0.4124,0.0994,76.92,75.70,783.0,0.24,2.4,0.03,0.3,78.3,7.83,0.02
00:50:00,4.1700,0.4492,0.4176,0.1006,77.90,76.65,783.0,1.87,18.7,0.2,2.0,78.3,7.83,0.18
00:50:10,4.2650,0.4629,0.4231,0.1019,78.92,77.63,785.0,1.97,19.7,0.21,2.1,78.5,7.85,0.19
00:50:20,4.1290,0.3567,0.4272,0.1029,79.68,78.39,783.0,1.47,14.7,0.16,1.6,78.3,7.83,0.14
00:50:30,5.1500,0.0093,0.4273,0.1029,79.71,78.41,788.0,0.05,0.5,0.01,0.1,78.8,7.88,0.0
00:50:40,3.9240,0.3284,0.4309,0.1038,80.37,79.10,785.0,1.29,12.9,0.14,1.4,78.5,7.85,0.12
00:50:50,5.1500,0.0093,0.4311,0.1038,80.40,79.12,785.0,0.05,0.5,0.01,0.1,78.5,7.85,0.0
00:51:00,3.6840,0.4507,0.4357,0.1051,81.26,80.07,788.0,1.66,16.6,0.18,1.8,78.8,7.88,0.16
00:51:10,5.1500,0.0093,0.4358,0.1051,81.28,80.09,790.0,0.05,0.5,0.01,0.1,79.0,7.9,0.0
00:51:20,3.3310,0.4526,0.4400,0.1064,82.06,81.05,793.0,1.51,15.1,0.16,1.6,79.3,7.93,0.14
00:51:30,5.1500,0.0093,0.4401,0.1064,82.09,81.07,793.0,0.05,0.5,0.01,0.1,79.3,7.93,0.0
00:51:40,4.2920,0.4077,0.4450,0.1075,83.00,81.93,791.0,1.75,17.5,0.19,1.9,79.1,7.91,0.17
00:51:50,4.9050,0.2404,0.4483,0.1082,83.61,82.44,795.0,1.18,11.8,0.13,1.3,79.5,7.95,0.11
00:52:00,5.1490,0.0701,0.4493,0.1084,83.79,82.59,797.0,0.36,3.6,0.04,0.4,79.7,7.97,0.03
00:52:10,5.1500,0.0093,0.4494,0.1084,83.82,82.61,796.0,0.05,0.5,0.01,0.1,79.6,7.96,0.0
00:52:20,4.9410,0.2012,0.4522,0.1090,84.33,83.04,797.0,0.99,9.9,0.1,1.0,79.7,7.97,0.09
00:52:30,5.1500,0.0176,0.4524,0.1090,84.38,83.07,799.0,0.09,0.9,0.01,0.1,79.9,7.99,0.01
00:52:40,5.1500,0.0093,0.4525,0.1091,84.41,83.09,797.0,0.05,0.5,0.01,0.1,79.7,7.97,0.0
00:52:50,5.1500,0.0092,0.4527,0.1091,84.43,83.11,801.0,0.05,0.5,0.01,0.1,80.1,8.01,0.0
00:53:00,5.1480,0.1638,0.4550,0.1095,84.87,83.46,799.0,0.84,8.4,0.09,0.9,79.9,7.99,0.08
00:53:10,5.1500,0.0091,0.4551,0.1096,84.89,83.48,800.0,0.05,0.5,0.01,0.1,80.0,8.0,0.0
00:53:20,5.1500,0.0092,0.4553,0.1096,84.92,83.50,802.0,0.05,0.5,0.01,0.1,80.2,8.02,0.0
00:53:30,4.0750,0.3867,0.4597,0.1107,85.73,84.32,802.0,1.58,15.8,0.17,1.7,80.2,8.02,0.15
00:53:40,2.7220,0.4774,0.4633,0.1120,86.41,85.33,805.0,1.3,13.0,0.14,1.4,80.5,8.05,0.12
00:53:50,5.1500,0.0093,0.4634,0.1120,86.43,85.35,804.0,0.05,0.5,0.01,0.1,80.4,8.04,0.0
00:54:00,4.3080,0.2283,0.4661,0.1127,86.94,85.83,803.0,0.98,9.8,0.1,1.0,80.3,8.03,0.09
00:54:10,5.1500,0.0093,0.4663,0.1127,86.96,85.85,804.0,0.05,0.5,0.01,0.1,80.4,8.04,0.0
00:54:20,5.1500,0.0093,0.4664,0.1127,86.99,85.87,808.0,0.05,0.5,0.01,0.1,80.8,8.08,0.0
00:54:30,2.6410,0.4881,0.4700,0.1141,87.66,86.90,804.0,1.29,12.9,0.14,1.4,80.4,8.04,0.12
00:54:40,3.8210,0.4610,0.4749,0.1153,88.57,87.88,799.0,1.76,17.6,0.19,1.9,79.9,7.99,0.17
00:54:50,5.1500,0.0094,0.4750,0.1154,88.60,87.90,802.0,0.05,0.5,0.01,0.1,80.2,8.02,0.0
00:55:00,4.5170,0.1617,0.4770,0.1158,88.97,88.24,802.0,0.73,7.3,0.08,0.8,80.2,8.02,0.07
00:55:10,3.0010,0.4741,0.4810,0.1171,89.71,89.24,802.0,1.42,14.2,0.15,1.5,80.2,8.02,0.13
00:55:20,5.1500,0.0092,0.4811,0.1172,89.74,89.26,800.0,0.05,0.5,0.01,0.1,80.0,8.0,0.0
00:55:30,5.1500,0.0094,0.4813,0.1172,89.76,89.28,798.0,0.05,0.5,0.01,0.1,79.8,7.98,0.0
00:55:40,5.1500,0.0093,0.4814,0.1172,89.79,89.30,798.0,0.05,0.5,0.01,0.1,79.8,7.98,0.0
00:55:50,5.1500,0.0093,0.4815,0.1172,89.81,89.32,798.0,0.05,0.5,0.01,0.1,79.8,7.98,0.0
00:56:00,5.1500,0.0093,0.4817,0.1173,89.83,89.34,795.0,0.05,0.5,0.01,0.1,79.5,7.95,0.0
00:56:10,4.3700,0.4148,0.4867,0.1184,90.77,90.22,795.0,1.81,18.1,0.19,1.9,79.5,7.95,0.17
00:56:20,2.6690,0.4922,0.4903,0.1198,91.45,91.26,797.0,1.31,13.1,0.14,1.4,79.7,7.97,0.12
00:56:30,5.1500,0.0093,0.4905,0.1198,91.48,91.28,793.0,0.05,0.5,0.01,0.1,79.3,7.93,0.0
00:56:40,5.1500,0.0092,0.4906,0.1198,91.50,91.30,793.0,0.05,0.5,0.01,0.1,79.3,7.93,0.0
00:56:50,5.1500,0.0093,0.4907,0.1199,91.53,91.32,786.0,0.05,0.5,0.01,0.1,78.6,7.86,0.0
00:57:00,5.1270,0.0632,0.4916,0.1200,91.70,91.45,794.0,0.32,3.2,0.03,0.3,79.4,7.94,0.03
00:57:10,5.1500,0.0093,0.4918,0.1201,91.72,91.47,797.0,0.05,0.5,0.01,0.1,79.7,7.97,0.0
00:57:20,5.1500,0.0092,0.4919,0.1201,91.75,91.49,796.0,0.05,0.5,0.01,0.1,79.6,7.96,0.0
00:57:30,4.6080,0.2867,0.4956,0.1209,92.43,92.10,801.0,1.32,13.2,0.14,1.4,80.1,8.01,0.12
00:57:40,5.1500,0.0093,0.4957,0.1209,92.46,92.12,803.0,0.05,0.5,0.01,0.1,80.3,8.03,0.0
00:57:50,4.7650,0.2501,0.4990,0.1216,93.07,92.65,805.0,1.19,11.9,0.13,1.3,80.5,8.05,0.11
00:58:00,5.1500,0.0093,0.4991,0.1216,93.10,92.67,809.0,0.05,0.5,0.01,0.1,80.9,8.09,0.0
00:58:10,2.9960,0.5299,0.5036,0.1231,93.92,93.79,812.0,1.59,15.9,0.17,1.7,81.2,8.12,0.15
00:58:20,5.1500,0.0093,0.5037,0.1231,93.94,93.81,808.0,0.05,0.5,0.01,0.1,80.8,8.08,0.0
00:58:30,5.1500,0.0093,0.5038,0.1232,93.97,93.83,810.0,0.05,0.5,0.01,0.1,81.0,8.1,0.0
00:58:40,4.8480,0.1133,0.5053,0.1235,94.25,94.07,809.0,0.55,5.5,0.06,0.6,80.9,8.09,0.05
00:58:50,5.1500,0.0093,0.5055,0.1235,94.28,94.09,805.0,0.05,0.5,0.01,0.1,80.5,8.05,0.0
00:59:00,5.1500,0.0093,0.5056,0.1235,94.30,94.11,798.0,0.05,0.5,0.01,0.1,79.8,7.98,0.0
00:59:10,2.6780,0.4743,0.5091,0.1248,94.96,95.11,804.0,1.27,12.7,0.13,1.3,80.4,8.04,0.12
00:59:20,5.1500,0.0093,0.5093,0.1249,94.99,95.13,808.0,0.05,0.5,0.01,0.1,80.8,8.08,0.0
00:59:30,5.1500,0.0093,0.5094,0.1249,95.01,95.15,811.0,0.05,0.5,0.01,0.1,81.1,8.11,0.0
00:59:40,2.9980,0.4927,0.5135,0.1263,95.78,96.19,814.0,1.48,14.8,0.16,1.6,81.4,8.14,0.14
00:59:50,5.1500,0.0092,0.5136,0.1263,95.80,96.21,819.0,0.05,0.5,0.01,0.1,81.9,8.19,0.0
01:00:00,5.1500,0.0093,0.5138,0.1263,95.83,96.23,820.0,0.05,0.5,0.01,0.1,82.0,8.2,0.0
01:00:10,4.1350,0.3544,0.5178,0.1273,96.59,96.98,818.0,1.47,14.7,0.16,1.6,81.8,8.18,0.14
01:00:20,5.1500,0.0093,0.5180,0.1273,96.61,97.00,822.0,0.05,0.5,0.01,0.1,82.2,8.22,0.0
01:00:30,4.7060,0.2217,0.5209,0.1279,97.15,97.47,823.0,1.04,10.4,0.11,1.1,82.3,8.23,0.1
01:00:40,5.1500,0.0093,0.5210,0.1280,97.18,97.49,820.0,0.05,0.5,0.01,0.1,82.0,8.2,0.0
01:00:50,5.1500,0.0092,0.5211,0.1280,97.20,97.51,796.0,0.05,0.5,0.01,0.1,79.6,7.96,0.0
01:01:00,5.1500,0.0093,0.5213,0.1280,97.22,97.53,694.0,0.05,0.5,0.01,0.1,69.4,6.94,0.01
01:01:10,5.1500,0.0405,0.5219,0.1281,97.33,97.62,755.0,0.21,2.1,0.02,0.2,75.5,7.55,0.02
01:01:20,5.1500,0.0308,0.5223,0.1282,97.42,97.68,624.0,0.16,1.6,0.02,0.2,62.4,6.24,0.02
01:01:30,5.1500,0.0093,0.5224,0.1282,97.44,97.70,792.0,0.05,0.5,0.01,0.1,79.2,7.92,0.0
01:01:40,4.2890,0.3764,0.5269,0.1293,98.28,98.50,795.0,1.61,16.1,0.17,1.7,79.5,7.95,0.15
01:01:50,5.1500,0.0092,0.5270,0.1293,98.30,98.52,791.0,0.05,0.5,0.01,0.1,79.1,7.91,0.0
01:02:00,5.1500,0.0223,0.5274,0.1294,98.36,98.57,782.0,0.11,1.1,0.01,0.1,78.2,7.82,0.01
01:02:10,5.1500,0.0649,0.5283,0.1295,98.53,98.70,781.0,0.33,3.3,0.03,0.3,78.1,7.81,0.03
01:02:20,5.1500,0.0090,0.5284,0.1296,98.56,98.72,782.0,0.05,0.5,0.01,0.1,78.2,7.82,0.0
01:02:30,4.2750,0.3417,0.5325,0.1305,99.31,99.45,782.0,1.46,14.6,0.15,1.5,78.2,7.82,0.14
01:02:40,4.9390,0.0615,0.5333,0.1307,99.47,99.58,780.0,0.3,3.0,0.03,0.3,78.0,7.8,0.03
01:02:50,5.1500,0.0093,0.5335,0.1307,99.50,99.60,784.0,0.05,0.5,0.01,0.1,78.4,7.84,0.0
01:03:00,5.1500,0.0093,0.5336,0.1307,99.52,99.61,784.0,0.05,0.5,0.01,0.1,78.4,7.84,0.0
01:03:10,5.0720,0.1727,0.5360,0.1312,99.98,99.98,781.0,0.88,8.8,0.09,0.9,78.1,7.81,0.08
01:03:20,5.1500,0.0093,0.5362,0.1313,100.00,100.00,782.0,0.05,0.5,0.01,0.1,78.2,7.82,0.0
01:03:30,5.1500,0.0092,0.5363,0.1313,100.02,100.02,785.0,0.05,0.5,0.01,0.1,78.5,7.85,0.0