File: output/10/foxelli-2.csv
Time,Voltage(V),Current(A),Energy(Wh),Capacity(Ah),Energy Proportion(%),Capacity Proportion(%),Irradiance(W/m2),Power(W),Sunlight Level
00:00:00,4.9280,0.9991,0.0137,0.0028,0.15,0.13,833.0,4.92,8.33
00:00:20,4.9250,0.9989,0.0410,0.0083,0.45,0.40,842.0,4.92,8.42
00:00:40,4.9240,0.9987,0.0683,0.0139,0.74,0.67,842.0,4.92,8.42
00:01:00,4.9220,0.9988,0.0957,0.0194,1.04,0.94,840.0,4.92,8.4
00:01:20,4.9210,0.9987,0.1230,0.0250,1.34,1.21,838.0,4.91,8.38
00:01:40,4.9200,0.9985,0.1503,0.0305,1.63,1.48,834.0,4.91,8.34
00:02:00,4.9180,0.9986,0.1775,0.0361,1.93,1.75,827.0,4.91,8.27
00:02:20,4.9160,0.9987,0.2048,0.0416,2.23,2.02,821.0,4.91,8.21
00:02:40,4.9150,0.9986,0.2321,0.0472,2.53,2.29,815.0,4.91,8.15
00:03:00,4.9140,0.9985,0.2593,0.0527,2.82,2.56,815.0,4.91,8.15
00:03:20,4.9140,0.9986,0.2866,0.0583,3.12,2.83,811.0,4.91,8.11
00:03:40,4.9120,0.9986,0.3139,0.0638,3.42,3.10,810.0,4.91,8.1
00:04:00,4.9120,0.9986,0.3411,0.0693,3.71,3.36,806.0,4.91,8.06
00:04:20,4.9110,0.9986,0.3683,0.0749,4.01,3.63,803.0,4.9,8.03
00:04:40,4.9100,0.9986,0.3956,0.0804,4.30,3.90,803.0,4.9,8.03
00:05:00,4.9100,0.9984,0.4224,0.0859,4.60,4.17,801.0,4.9,8.01
00:05:20,4.9100,0.9983,0.4497,0.0915,4.89,4.44,801.0,4.9,8.01
00:05:40,4.9090,0.9987,0.4769,0.0970,5.19,4.71,796.0,4.9,7.96
00:06:00,4.9080,0.9984,0.5041,0.1026,5.49,4.98,791.0,4.9,7.91
00:06:20,4.9070,0.9987,0.5314,0.1081,5.78,5.24,790.0,4.9,7.9
00:06:40,4.9070,0.9988,0.5586,0.1136,6.08,5.51,787.0,4.9,7.87
00:07:00,4.9060,0.9985,0.5858,0.1192,6.37,5.78,785.0,4.9,7.85
00:07:20,4.9060,0.9985,0.6130,0.1247,6.67,6.05,782.0,4.9,7.82
00:07:40,4.9050,0.9987,0.6402,0.1303,6.97,6.32,782.0,4.9,7.82
00:08:00,4.9050,0.9985,0.6675,0.1358,7.26,6.59,782.0,4.9,7.82
00:08:20,4.9040,0.9986,0.6947,0.1414,7.56,6.86,780.0,4.9,7.8
00:08:40,4.9040,0.9984,0.7219,0.1469,7.85,7.13,780.0,4.9,7.8
00:09:00,4.9030,0.9987,0.7491,0.1525,8.15,7.40,771.0,4.9,7.71
00:09:20,4.9030,0.9984,0.7763,0.1580,8.45,7.67,769.0,4.9,7.69
00:09:40,4.9030,0.9985,0.8035,0.1636,8.74,7.94,772.0,4.9,7.72
00:10:00,4.9030,0.9986,0.8171,0.1663,8.89,8.07,770.0,4.9,7.7
00:10:20,4.9030,0.9983,0.8443,0.1719,9.19,8.34,776.0,4.89,7.76
00:10:40,4.9020,0.9983,0.8715,0.1774,9.48,8.61,793.0,4.89,7.93
00:11:00,5.1600,0.0090,0.8718,0.1775,9.49,8.61,124.2,0.05,1.242
00:11:20,4.2500,0.0635,0.8727,0.1777,9.50,8.62,107.8,0.27,1.078
00:11:40,5.1610,0.0090,0.8734,0.1779,9.50,8.63,103.0,0.05,1.03
00:12:00,5.1620,0.0090,0.8737,0.1779,9.51,8.63,105.8,0.05,1.058
00:12:20,5.1620,0.0090,0.8739,0.1780,9.51,8.63,100.2,0.05,1.002
00:12:40,5.1630,0.0090,0.8742,0.1780,9.51,8.64,95.9,0.05,0.959
00:13:00,5.1640,0.0090,0.8744,0.1781,9.52,8.64,100.1,0.05,1.001
00:13:20,5.1640,0.0089,0.8747,0.1781,9.52,8.64,115.1,0.05,1.151
00:13:40,5.1640,0.0132,0.8760,0.1784,9.53,8.65,265.0,0.07,2.65
00:14:00,4.9110,0.9991,0.9033,0.1839,9.83,8.92,832.0,4.91,8.32
00:14:20,4.9100,0.9990,0.9306,0.1895,10.13,9.19,826.0,4.91,8.26
00:14:40,4.9090,0.9989,0.9578,0.1950,10.42,9.46,828.0,4.9,8.28
00:15:00,4.9070,0.9991,0.9850,0.2006,10.72,9.73,829.0,4.9,8.29
00:15:20,4.9070,0.9987,1.0123,0.2061,11.01,10.00,842.0,4.9,8.42
00:15:40,5.1620,0.0090,1.0260,0.2089,11.16,10.14,317.0,0.05,3.17
00:16:00,4.5380,0.9987,1.0403,0.2120,11.32,10.29,578.0,4.53,5.78
00:16:20,5.1630,0.0090,1.0540,0.2148,11.47,10.42,191.4,0.05,1.914
00:16:40,5.1640,0.0090,1.0544,0.2149,11.47,10.43,193.2,0.05,1.932
00:17:00,4.3550,0.1959,1.0569,0.2155,11.50,10.45,349.0,0.85,3.49
00:17:20,4.9090,0.9988,1.0841,0.2210,11.80,10.72,875.0,4.9,8.75
00:17:40,4.9070,0.9989,1.1113,0.2266,12.09,10.99,889.0,4.9,8.89
00:18:00,4.9060,0.9988,1.1386,0.2321,12.39,11.26,880.0,4.9,8.8
00:18:20,4.9050,0.9986,1.1658,0.2377,12.69,11.53,877.0,4.9,8.77
00:18:40,5.1600,0.0376,1.1799,0.2405,12.84,11.67,157.8,0.19,1.578
00:19:00,5.1620,0.0090,1.1808,0.2407,12.85,11.68,138.1,0.05,1.381
00:19:20,5.1630,0.0089,1.1811,0.2408,12.85,11.68,133.4,0.05,1.334
00:19:40,2.1700,0.0804,1.1827,0.2413,12.87,11.70,133.4,0.17,1.334
00:20:00,5.1640,0.0090,1.1836,0.2414,12.88,11.71,140.0,0.05,1.4
00:20:20,3.2340,0.8633,1.1915,0.2439,12.97,11.83,517.0,2.79,5.17
00:20:40,4.7910,0.9983,1.2049,0.2467,13.11,11.97,484.0,4.78,4.84
00:21:00,5.1630,0.0149,1.2058,0.2468,13.12,11.97,161.4,0.08,1.614
00:21:20,3.7100,0.0668,1.2066,0.2470,13.13,11.98,155.9,0.25,1.559
00:21:40,5.1650,0.0089,1.2068,0.2471,13.13,11.99,204.0,0.05,2.04
00:22:00,4.8420,0.1635,1.2092,0.2476,13.16,12.01,298.0,0.79,2.98
00:22:20,3.3320,0.9647,1.2182,0.2503,13.26,12.14,529.0,3.21,5.29
00:22:40,4.8050,0.9088,1.2305,0.2528,13.39,12.26,457.0,4.37,4.57
00:23:00,4.9110,0.9989,1.2577,0.2584,13.69,12.53,859.0,4.91,8.59
00:23:20,4.9100,0.9987,1.2850,0.2639,13.98,12.80,843.0,4.9,8.43
00:23:40,4.9090,0.9991,1.3122,0.2695,14.28,13.07,835.0,4.9,8.35
00:24:00,4.9080,0.9988,1.3395,0.2750,14.58,13.34,829.0,4.9,8.29
00:24:20,4.9070,0.9987,1.3667,0.2806,14.87,13.61,818.0,4.9,8.18
00:24:40,4.9070,0.9988,1.3939,0.2861,15.17,13.88,803.0,4.9,8.03
00:25:00,4.9060,0.9988,1.4211,0.2917,15.46,14.15,791.0,4.9,7.91
00:25:20,4.9060,0.9987,1.4484,0.2972,15.76,14.42,786.0,4.9,7.86
00:25:40,4.9050,0.9987,1.4756,0.3028,16.06,14.69,777.0,4.9,7.77
00:26:00,4.9050,0.9985,1.5028,0.3083,16.35,14.96,774.0,4.9,7.74
00:26:20,4.9040,0.9987,1.5300,0.3139,16.65,15.23,774.0,4.9,7.74
00:26:40,4.9040,0.9986,1.5572,0.3194,16.94,15.49,772.0,4.9,7.72
00:27:00,4.9030,0.9986,1.5844,0.3249,17.24,15.76,766.0,4.9,7.66
00:27:20,4.9030,0.9985,1.6116,0.3305,17.54,16.03,765.0,4.9,7.65
00:27:40,0.5200,0.0000,1.6252,0.3333,17.68,16.17,761.0,0.0,7.61
00:28:00,4.9020,0.9986,1.6524,0.3388,17.98,16.44,761.0,4.9,7.61
00:28:20,4.9020,0.9986,1.6796,0.3444,18.28,16.71,765.0,4.9,7.65
00:28:40,4.9010,0.9987,1.7068,0.3499,18.57,16.98,761.0,4.89,7.61
00:29:00,4.9010,0.9985,1.7340,0.3555,18.87,17.24,756.0,4.89,7.56
00:29:20,4.9000,0.9988,1.7612,0.3610,19.16,17.51,756.0,4.89,7.56
00:29:40,4.9000,0.9985,1.7883,0.3666,19.46,17.78,763.0,4.89,7.63
00:30:00,4.8990,0.9992,1.8155,0.3721,19.76,18.05,769.0,4.9,7.69
00:30:20,4.8990,0.9981,1.8427,0.3776,20.05,18.32,777.0,4.89,7.77
00:30:40,4.8980,0.9981,1.8699,0.3832,20.35,18.59,784.0,4.89,7.84
00:31:00,4.8980,0.9984,1.8970,0.3887,20.64,18.86,778.0,4.89,7.78
00:31:20,4.8980,0.9984,1.9242,0.3943,20.94,19.13,771.0,4.89,7.71
00:31:40,4.8970,0.9984,1.9514,0.3998,21.23,19.40,761.0,4.89,7.61
00:32:00,4.8970,0.9982,1.9785,0.4054,21.53,19.67,758.0,4.89,7.58
00:32:20,4.8960,0.9980,2.0057,0.4109,21.82,19.94,763.0,4.89,7.63
00:32:40,0.7350,0.0000,2.0192,0.4137,21.97,20.07,761.0,0.0,7.61
00:33:00,4.8960,0.9982,2.0464,0.4192,22.27,20.34,769.0,4.89,7.69
00:33:20,4.8950,0.9984,2.0735,0.4248,22.56,20.61,777.0,4.89,7.77
00:33:40,4.3300,0.9980,2.0991,0.4303,22.84,20.88,629.0,4.32,6.29
00:34:00,5.1560,0.0090,2.1097,0.4331,22.96,21.01,370.0,0.05,3.7
00:34:20,5.1570,0.0091,2.1107,0.4334,22.97,21.03,130.1,0.05,1.301
00:34:40,5.1570,0.0090,2.1110,0.4335,22.97,21.03,110.6,0.05,1.106
00:35:00,5.1580,0.0090,2.1112,0.4335,22.97,21.03,103.5,0.05,1.035
00:35:20,5.1590,0.0089,2.1115,0.4336,22.98,21.03,107.7,0.05,1.077
00:35:40,5.1600,0.0090,2.1117,0.4336,22.98,21.04,116.2,0.05,1.162
00:36:00,5.1610,0.0090,2.1120,0.4337,22.98,21.04,149.0,0.05,1.49
00:36:20,4.9040,0.9985,2.1392,0.4392,23.28,21.31,796.0,4.9,7.96
00:36:40,5.1600,0.0237,2.1397,0.4393,23.28,21.31,138.7,0.12,1.387
00:37:00,5.1610,0.0090,2.1407,0.4396,23.29,21.32,134.1,0.05,1.341
00:37:20,5.1620,0.0089,2.1410,0.4396,23.30,21.33,133.2,0.05,1.332
00:37:40,5.0950,0.0615,2.1420,0.4398,23.31,21.34,135.1,0.31,1.351
00:38:00,3.7200,0.0820,2.1437,0.4404,23.33,21.36,134.9,0.31,1.349
00:38:20,5.1640,0.0090,2.1439,0.4404,23.33,21.37,133.7,0.05,1.337
00:38:40,5.1640,0.0089,2.1442,0.4405,23.33,21.37,135.4,0.05,1.354
00:39:00,2.2800,0.0706,2.1455,0.4409,23.35,21.39,137.2,0.16,1.372
00:39:20,5.1650,0.0089,2.1457,0.4409,23.35,21.39,344.0,0.05,3.44
00:39:40,4.9100,0.9987,2.1730,0.4465,23.65,21.66,794.0,4.9,7.94
00:40:00,4.9080,0.9990,2.2002,0.4520,23.94,21.93,794.0,4.9,7.94
00:40:20,4.9070,0.9988,2.2274,0.4576,24.24,22.20,792.0,4.9,7.92
00:40:40,4.9070,0.9989,2.2547,0.4631,24.53,22.47,789.0,4.9,7.89
00:41:00,4.9060,0.9982,2.2819,0.4687,24.83,22.74,781.0,4.9,7.81
00:41:20,4.9050,0.9991,2.3091,0.4742,25.13,23.01,777.0,4.9,7.77
00:41:40,4.9050,0.9985,2.3363,0.4798,25.42,23.27,772.0,4.9,7.72
00:42:00,4.9040,0.9985,2.3635,0.4853,25.72,23.54,765.0,4.9,7.65
00:42:20,4.9040,0.9987,2.3907,0.4909,26.01,23.81,762.0,4.9,7.62
00:42:40,4.9030,0.9985,2.4179,0.4964,26.31,24.08,756.0,4.9,7.56
00:43:00,4.9030,0.9986,2.4451,0.5020,26.61,24.35,754.0,4.9,7.54
00:43:20,4.9020,0.9985,2.4723,0.5075,26.90,24.62,751.0,4.89,7.51
00:43:40,4.9020,0.9987,2.4995,0.5131,27.20,24.89,747.0,4.9,7.47
00:44:00,4.9020,0.9986,2.5267,0.5186,27.49,25.16,744.0,4.9,7.44
00:44:20,4.9020,0.9986,2.5539,0.5241,27.79,25.43,740.0,4.9,7.4
00:44:40,4.9020,0.9986,2.5811,0.5297,28.09,25.70,740.0,4.9,7.4
00:45:00,4.9020,0.9988,2.6083,0.5352,28.38,25.97,735.0,4.9,7.35
00:45:20,4.9010,0.9985,2.6355,0.5408,28.68,26.24,735.0,4.89,7.35
00:45:40,4.9010,0.9987,2.6627,0.5463,28.97,26.50,735.0,4.89,7.35
00:46:00,4.9000,0.9985,2.6899,0.5519,29.27,26.77,738.0,4.89,7.38
00:46:20,4.9000,0.9984,2.7171,0.5574,29.57,27.04,742.0,4.89,7.42
00:46:40,4.9000,0.9985,2.7442,0.5630,29.86,27.31,741.0,4.89,7.41
00:47:00,4.9000,0.9985,2.7714,0.5685,30.16,27.58,738.0,4.89,7.38
00:47:20,4.9000,0.9986,2.7986,0.5741,30.45,27.85,739.0,4.89,7.39
00:47:40,4.8990,0.9986,2.8258,0.5796,30.75,28.12,739.0,4.89,7.39
00:48:00,3.3960,0.9119,2.8480,0.5849,30.99,28.38,624.0,3.1,6.24
00:48:20,4.9000,0.9984,2.8689,0.5900,31.22,28.62,742.0,4.89,7.42
00:48:40,4.8990,0.9983,2.8960,0.5956,31.51,28.89,741.0,4.89,7.41
00:49:00,4.8980,0.9984,2.9232,0.6011,31.81,29.16,742.0,4.89,7.42
00:49:20,4.8980,0.9980,2.9504,0.6066,32.10,29.43,738.0,4.89,7.38
00:49:40,4.8990,0.9981,2.9643,0.6095,32.26,29.57,738.0,4.89,7.38
00:50:00,4.8980,0.9984,2.9915,0.6150,32.55,29.84,733.0,4.89,7.33
00:50:20,4.8980,0.9984,3.0187,0.6206,32.85,30.11,733.0,4.89,7.33
00:50:40,4.8970,0.9984,3.0458,0.6261,33.14,30.38,735.0,4.89,7.35
00:51:00,4.8970,0.9983,3.0730,0.6317,33.44,30.64,732.0,4.89,7.32
00:51:20,4.8970,0.9984,3.1001,0.6372,33.73,30.91,734.0,4.89,7.34
00:51:40,4.8970,0.9985,3.1273,0.6428,34.03,31.18,733.0,4.89,7.33
00:52:00,4.8970,0.9986,3.1545,0.6483,34.33,31.45,728.0,4.89,7.28
00:52:20,4.8960,0.9985,3.1816,0.6539,34.62,31.72,727.0,4.89,7.27
00:52:40,4.8960,0.9984,3.2088,0.6594,34.92,31.99,729.0,4.89,7.29
00:53:00,4.8960,0.9980,3.2359,0.6650,35.21,32.26,733.0,4.89,7.33
00:53:20,4.8950,0.9983,3.2631,0.6705,35.51,32.53,736.0,4.89,7.36
00:53:40,4.8950,0.9983,3.2902,0.6760,35.80,32.80,737.0,4.89,7.37
00:54:00,4.8950,0.9982,3.3174,0.6816,36.10,33.07,745.0,4.89,7.45
00:54:20,5.1560,0.0090,3.3176,0.6816,36.10,33.07,117.3,0.05,1.173
00:54:40,5.1570,0.0090,3.3179,0.6817,36.10,33.07,122.0,0.05,1.22
00:55:00,5.1030,0.2358,3.3214,0.6824,36.14,33.10,388.0,1.2,3.88
00:55:20,4.2470,0.9983,3.3333,0.6852,36.27,33.24,666.0,4.24,6.66
00:55:40,5.1590,0.0089,3.3349,0.6856,36.29,33.26,143.2,0.05,1.432
00:56:00,3.2560,0.1853,3.3367,0.6862,36.31,33.29,151.4,0.6,1.514
00:56:20,3.8430,0.0861,3.3377,0.6864,36.32,33.30,136.5,0.33,1.365
00:56:40,5.1600,0.0090,3.3385,0.6867,36.33,33.31,139.1,0.05,1.391
00:57:00,4.0930,0.2574,3.3416,0.6875,36.36,33.35,328.0,1.05,3.28
00:57:20,4.9020,0.9991,3.3688,0.6930,36.66,33.62,759.0,4.9,7.59
00:57:40,4.9020,0.9988,3.3960,0.6986,36.95,33.89,755.0,4.9,7.55
00:58:00,4.9010,0.9988,3.4232,0.7041,37.25,34.16,744.0,4.9,7.44
00:58:20,4.9000,0.9987,3.4504,0.7097,37.55,34.43,682.0,4.89,6.82
00:58:40,4.9000,0.9988,3.4776,0.7152,37.84,34.70,746.0,4.89,7.46
00:59:00,4.9000,0.9995,3.5048,0.7208,38.14,34.97,743.0,4.9,7.43
00:59:20,4.9000,0.9986,3.5320,0.7263,38.43,35.23,741.0,4.89,7.41
00:59:40,4.9000,0.9986,3.5592,0.7319,38.73,35.50,741.0,4.89,7.41
01:00:00,4.9000,0.9989,3.5863,0.7374,39.02,35.77,736.0,4.89,7.36
01:00:20,4.9000,0.9988,3.6135,0.7429,39.32,36.04,733.0,4.89,7.33
01:00:40,4.8990,0.9987,3.6407,0.7485,39.62,36.31,730.0,4.89,7.3
01:01:00,4.8980,0.9985,3.6679,0.7540,39.91,36.58,726.0,4.89,7.26
01:01:20,4.8980,0.9985,3.6951,0.7596,40.21,36.85,727.0,4.89,7.27
01:01:40,4.8980,0.9985,3.7222,0.7651,40.50,37.12,725.0,4.89,7.25
01:02:00,4.8970,0.9985,3.7494,0.7707,40.80,37.39,723.0,4.89,7.23
01:02:20,4.8980,0.9983,3.7766,0.7762,41.09,37.66,719.0,4.89,7.19
01:02:40,4.8970,0.9985,3.8037,0.7818,41.39,37.93,716.0,4.89,7.16
01:03:00,4.8970,0.9984,3.8309,0.7873,41.69,38.20,711.0,4.89,7.11
01:03:20,4.8970,0.9985,3.8581,0.7929,41.98,38.46,708.0,4.89,7.08
01:03:40,4.8970,0.9983,3.8852,0.7984,42.28,38.73,702.0,4.89,7.02
01:04:00,4.8970,0.9981,3.9124,0.8040,42.57,39.00,703.0,4.89,7.03
01:04:20,4.8970,0.9984,3.9395,0.8095,42.87,39.27,704.0,4.89,7.04
01:04:40,4.8960,0.9982,3.9667,0.8151,43.16,39.54,703.0,4.89,7.03
01:05:00,4.8960,0.9983,3.9938,0.8206,43.46,39.81,701.0,4.89,7.01
01:05:20,4.8970,0.9986,4.0210,0.8262,43.75,40.08,694.0,4.89,6.94
01:05:40,4.8960,0.9982,4.0482,0.8317,44.05,40.35,693.0,4.89,6.93
01:06:00,4.8960,0.9984,4.0753,0.8372,44.35,40.62,686.0,4.89,6.86
01:06:20,4.8970,0.9984,4.1025,0.8428,44.64,40.89,684.0,4.89,6.84
01:06:40,4.8970,0.9982,4.1296,0.8483,44.94,41.16,679.0,4.89,6.79
01:07:00,4.8980,0.9984,4.1568,0.8539,45.23,41.42,673.0,4.89,6.73
01:07:20,4.9000,0.9981,4.1705,0.8567,45.38,41.56,672.0,4.89,6.72
01:07:40,4.9000,0.9992,4.1977,0.8622,45.68,41.83,666.0,4.9,6.66
01:08:00,4.9010,0.9984,4.2249,0.8678,45.97,42.10,662.0,4.89,6.62
01:08:20,4.9010,0.9984,4.2521,0.8733,46.27,42.37,658.0,4.89,6.58
01:08:40,4.9010,0.9985,4.2793,0.8789,46.56,42.64,658.0,4.89,6.58
01:09:00,4.9010,0.9987,4.3065,0.8844,46.86,42.91,658.0,4.89,6.58
01:09:20,4.9000,0.9977,4.3336,0.8900,47.16,43.17,656.0,4.89,6.56
01:09:40,4.8970,0.9985,4.3608,0.8955,47.45,43.44,656.0,4.89,6.56
01:10:00,4.8700,0.9986,4.3879,0.9011,47.75,43.71,651.0,4.86,6.51
01:10:20,4.8610,0.9977,4.4148,0.9066,48.04,43.98,650.0,4.85,6.5
01:10:40,4.8550,0.9992,4.4418,0.9122,48.33,44.25,647.0,4.85,6.47
01:11:00,4.8480,0.9981,4.4687,0.9177,48.63,44.52,646.0,4.84,6.46
01:11:20,4.8480,0.9970,4.4955,0.9232,48.92,44.79,647.0,4.83,6.47
01:11:40,4.8460,0.9989,4.5224,0.9288,49.21,45.06,643.0,4.84,6.43
01:12:00,4.8590,0.9983,4.5493,0.9343,49.50,45.33,647.0,4.85,6.47
01:12:20,4.8500,0.9977,4.5628,0.9371,49.65,45.46,644.0,4.84,6.44
01:12:40,4.8670,0.9978,4.5897,0.9427,49.94,45.73,645.0,4.86,6.45
01:13:00,4.8650,0.9980,4.6167,0.9482,50.24,46.00,644.0,4.86,6.44
01:13:20,4.8510,0.9979,4.6436,0.9537,50.53,46.27,644.0,4.84,6.44
01:13:40,4.8300,0.9993,4.6704,0.9593,50.82,46.54,638.0,4.83,6.38
01:14:00,4.8130,0.9994,4.6972,0.9648,51.11,46.81,636.0,4.81,6.36
01:14:20,4.7830,0.9968,4.7237,0.9704,51.40,47.08,635.0,4.77,6.35
01:14:40,4.7700,0.9964,4.7501,0.9759,51.69,47.34,632.0,4.75,6.32
01:15:00,4.7880,0.9987,4.7767,0.9815,51.98,47.61,635.0,4.78,6.35
01:15:20,4.7960,0.9982,4.8033,0.9870,52.27,47.88,634.0,4.79,6.34
01:15:40,4.8120,0.9990,4.8299,0.9926,52.56,48.15,633.0,4.81,6.33
01:16:00,4.8260,0.9995,4.8567,0.9981,52.85,48.42,634.0,4.82,6.34
01:16:20,4.8330,0.9994,4.8835,1.0037,53.14,48.69,633.0,4.83,6.33
01:16:40,4.8340,0.9970,4.9102,1.0092,53.43,48.96,634.0,4.82,6.34
01:17:00,4.8430,1.0001,4.9371,1.0148,53.72,49.23,635.0,4.84,6.35
01:17:20,4.8310,0.9982,4.9505,1.0175,53.87,49.36,633.0,4.82,6.33
01:17:40,4.8220,0.9986,4.9773,1.0231,54.16,49.63,631.0,4.82,6.31
01:18:00,4.8190,0.9985,5.0040,1.0286,54.45,49.90,633.0,4.81,6.33
01:18:20,4.8110,0.9997,5.0307,1.0342,54.74,50.17,629.0,4.81,6.29
01:18:40,4.8110,0.9970,5.0574,1.0397,55.03,50.44,630.0,4.8,6.3
01:19:00,4.8050,0.9966,5.0840,1.0453,55.32,50.71,630.0,4.79,6.3
01:19:20,4.8070,1.0000,5.1107,1.0508,55.61,50.98,628.0,4.81,6.28
01:19:40,4.8290,0.9971,5.1374,1.0563,55.90,51.25,630.0,4.81,6.3
01:20:00,4.8330,0.9981,5.1643,1.0619,56.19,51.52,631.0,4.82,6.31
01:20:20,4.8310,0.9980,5.1911,1.0674,56.49,51.78,633.0,4.82,6.33
01:20:40,4.8280,0.9975,5.2178,1.0730,56.78,52.05,628.0,4.82,6.28
01:21:00,4.8030,0.9971,5.2445,1.0785,57.07,52.32,628.0,4.79,6.28
01:21:20,4.7550,0.9996,5.2710,1.0841,57.36,52.59,623.0,4.75,6.23
01:21:40,4.7500,0.9976,5.2973,1.0896,57.64,52.86,621.0,4.74,6.21
01:22:00,4.7770,0.9972,5.3237,1.0952,57.93,53.13,620.0,4.76,6.2
01:22:20,4.7790,0.9987,5.3503,1.1007,58.22,53.40,623.0,4.77,6.23
01:22:40,4.7640,0.9986,5.3767,1.1063,58.51,53.67,619.0,4.76,6.19
01:23:00,4.7570,0.9985,5.4031,1.1118,58.79,53.94,616.0,4.75,6.16
01:23:20,4.7650,0.9984,5.4295,1.1174,59.08,54.21,619.0,4.76,6.19
01:23:40,4.7700,0.9985,5.4560,1.1229,59.37,54.47,620.0,4.76,6.2
01:24:00,4.7730,0.9982,5.4824,1.1285,59.66,54.74,617.0,4.76,6.17
01:24:20,4.7530,0.9984,5.5088,1.1340,59.94,55.01,615.0,4.75,6.15
01:24:40,4.7670,0.9979,5.5353,1.1395,60.23,55.28,614.0,4.76,6.14
01:25:00,4.7730,0.9988,5.5617,1.1451,60.52,55.55,613.0,4.77,6.13
01:25:20,4.7930,0.9987,5.5883,1.1506,60.81,55.82,616.0,4.79,6.16
01:25:40,4.8020,0.9986,5.6149,1.1562,61.10,56.09,617.0,4.8,6.17
01:26:00,4.7960,0.9986,5.6415,1.1617,61.39,56.36,618.0,4.79,6.18
01:26:20,4.7940,0.9984,5.6681,1.1673,61.68,56.63,618.0,4.79,6.18
01:26:40,4.7600,0.9983,5.6946,1.1728,61.97,56.90,614.0,4.75,6.14
01:27:00,4.7440,0.9985,5.7209,1.1784,62.25,57.17,611.0,4.74,6.11
01:27:20,5.1590,0.0090,5.7342,1.1812,62.40,57.30,610.0,0.05,6.1
01:27:40,4.7200,0.9983,5.7604,1.1867,62.68,57.57,609.0,4.71,6.09
01:28:00,4.7390,0.9979,5.7866,1.1923,62.97,57.84,608.0,4.73,6.08
01:28:20,4.7330,0.9985,5.8129,1.1978,63.25,58.11,611.0,4.73,6.11
01:28:40,4.7420,0.9985,5.8392,1.2034,63.54,58.38,611.0,4.73,6.11
01:29:00,4.7540,0.9984,5.8655,1.2089,63.83,58.65,613.0,4.75,6.13
01:29:20,4.7430,0.9985,5.8919,1.2145,64.11,58.92,611.0,4.74,6.11
01:29:40,4.7310,0.9985,5.9182,1.2200,64.40,59.19,611.0,4.72,6.11
01:30:00,4.7040,0.9984,5.9443,1.2256,64.68,59.45,607.0,4.7,6.07
01:30:20,4.6930,0.9982,5.9703,1.2311,64.97,59.72,606.0,4.68,6.06
01:30:40,4.6910,0.9985,5.9963,1.2366,65.25,59.99,607.0,4.68,6.07
01:31:00,4.6680,0.9993,6.0223,1.2422,65.53,60.26,605.0,4.66,6.05
01:31:20,4.6400,0.9984,6.0480,1.2477,65.81,60.53,603.0,4.63,6.03
01:31:40,4.6350,0.9974,6.0737,1.2533,66.09,60.80,600.0,4.62,6.0
01:32:00,4.6200,0.9990,6.0994,1.2588,66.37,61.07,597.0,4.62,5.97
01:32:20,0.5510,0.0000,6.1122,1.2616,66.51,61.20,599.0,0.0,5.99
01:32:40,4.6180,0.9982,6.1378,1.2672,66.79,61.47,599.0,4.61,5.99
01:33:00,4.5950,0.9983,6.1633,1.2727,67.07,61.74,594.0,4.59,5.94
01:33:20,4.5920,0.9984,6.1888,1.2782,67.34,62.01,596.0,4.58,5.96
01:33:40,4.5910,0.9979,6.2142,1.2838,67.62,62.28,596.0,4.58,5.96
01:34:00,4.5890,0.9976,6.2397,1.2893,67.90,62.55,597.0,4.58,5.97
01:34:20,4.5860,0.9985,6.2651,1.2949,68.17,62.82,597.0,4.58,5.97
01:34:40,4.5630,0.9983,6.2904,1.3004,68.45,63.09,595.0,4.56,5.95
01:35:00,4.5540,0.9986,6.3157,1.3060,68.72,63.36,592.0,4.55,5.92
01:35:20,4.5310,0.9983,6.3409,1.3115,69.00,63.63,592.0,4.52,5.92
01:35:40,4.5050,0.9985,6.3659,1.3171,69.27,63.89,591.0,4.5,5.91
01:36:00,4.4990,0.9986,6.3909,1.3226,69.54,64.16,588.0,4.49,5.88
01:36:20,4.4700,0.9972,6.4157,1.3281,69.81,64.43,587.0,4.46,5.87
01:36:40,4.4760,0.9980,6.4405,1.3337,70.08,64.70,587.0,4.47,5.87
01:37:00,4.4670,0.9986,6.4653,1.3392,70.35,64.97,586.0,4.46,5.86
01:37:20,4.4880,0.9981,6.4901,1.3448,70.62,65.24,586.0,4.48,5.86
01:37:40,4.4850,0.9983,6.5150,1.3503,70.89,65.51,585.0,4.48,5.85
01:38:00,4.4730,0.9985,6.5398,1.3559,71.16,65.78,584.0,4.47,5.84
01:38:20,4.4680,0.9984,6.5646,1.3614,71.43,66.05,583.0,4.46,5.83
01:38:40,4.4400,0.9985,6.5893,1.3670,71.70,66.32,580.0,4.43,5.8
01:39:00,4.4320,0.9992,6.6139,1.3725,71.97,66.58,582.0,4.43,5.82
01:39:20,4.4310,0.9991,6.6385,1.3781,72.24,66.85,580.0,4.43,5.8
01:39:40,4.4270,0.9979,6.6630,1.3836,72.50,67.12,580.0,4.42,5.8
01:40:00,4.4400,0.9978,6.6876,1.3892,72.77,67.39,582.0,4.43,5.82
01:40:20,4.4360,0.9981,6.7122,1.3947,73.04,67.66,580.0,4.43,5.8
01:40:40,4.4400,0.9976,6.7368,1.4002,73.31,67.93,581.0,4.43,5.81
01:41:00,4.4690,0.9977,6.7616,1.4058,73.58,68.20,583.0,4.46,5.83
01:41:20,4.4550,0.9979,6.7863,1.4113,73.84,68.47,583.0,4.45,5.83
01:41:40,4.4570,0.9974,6.8109,1.4169,74.11,68.74,585.0,4.45,5.85
01:42:00,4.4260,0.9999,6.8356,1.4224,74.38,69.01,579.0,4.43,5.79
01:42:20,4.3990,0.9979,6.8600,1.4280,74.65,69.27,582.0,4.39,5.82
01:42:40,4.3880,0.9990,6.8844,1.4335,74.91,69.54,578.0,4.38,5.78
01:43:00,4.3250,0.9993,6.9085,1.4391,75.17,69.81,573.0,4.32,5.73
01:43:20,4.2760,0.9996,6.9323,1.4446,75.43,70.08,572.0,4.27,5.72
01:43:40,4.2390,0.9965,6.9559,1.4502,75.69,70.35,569.0,4.22,5.69
01:44:00,4.2110,0.9994,6.9793,1.4557,75.94,70.62,568.0,4.21,5.68
01:44:20,4.1750,0.9981,7.0025,1.4613,76.20,70.89,566.0,4.17,5.66
01:44:40,4.1500,0.9989,7.0256,1.4668,76.45,71.16,564.0,4.15,5.64
01:45:00,4.1240,0.9972,7.0484,1.4723,76.70,71.43,563.0,4.11,5.63
01:45:20,4.1410,0.9953,7.0713,1.4779,76.95,71.70,564.0,4.12,5.64
01:45:40,4.0910,1.0004,7.0941,1.4834,77.19,71.97,562.0,4.09,5.62
01:46:00,4.0600,0.9996,7.1167,1.4890,77.44,72.23,562.0,4.06,5.62
01:46:20,4.0270,0.9973,7.1279,1.4918,77.56,72.37,559.0,4.02,5.59
01:46:40,4.0030,0.9980,7.1501,1.4973,77.80,72.64,558.0,3.99,5.58
01:47:00,3.9670,0.9975,7.1722,1.5028,78.04,72.91,556.0,3.96,5.56
01:47:20,3.9390,0.9985,7.1941,1.5084,78.28,73.18,558.0,3.93,5.58
01:47:40,3.8790,0.9986,7.2157,1.5139,78.52,73.45,555.0,3.87,5.55
01:48:00,3.8590,0.9983,7.2371,1.5195,78.75,73.71,556.0,3.85,5.56
01:48:20,3.8520,0.9969,7.2584,1.5250,78.98,73.98,554.0,3.84,5.54
01:48:40,3.8640,0.9969,7.2797,1.5306,79.21,74.25,555.0,3.85,5.55
01:49:00,3.9010,0.9998,7.3014,1.5361,79.45,74.52,557.0,3.9,5.57
01:49:20,3.9220,0.9988,7.3230,1.5417,79.69,74.79,555.0,3.92,5.55
01:49:40,3.9200,0.9966,7.3447,1.5472,79.92,75.06,558.0,3.91,5.58
01:50:00,4.0030,0.9968,7.3667,1.5528,80.16,75.33,558.0,3.99,5.58
01:50:20,4.1340,0.9955,7.3895,1.5583,80.41,75.60,563.0,4.12,5.63
01:50:40,4.1500,0.9997,7.4126,1.5638,80.66,75.87,567.0,4.15,5.67
01:51:00,4.2030,0.9974,7.4358,1.5694,80.91,76.13,569.0,4.19,5.69
01:51:20,4.2310,0.9952,7.4592,1.5749,81.17,76.40,569.0,4.21,5.69
01:51:40,4.2550,0.9988,7.4828,1.5804,81.42,76.67,570.0,4.25,5.7
01:52:00,4.3270,0.9980,7.5067,1.5860,81.68,76.94,574.0,4.32,5.74
01:52:20,4.3870,0.9978,7.5310,1.5915,81.95,77.21,579.0,4.38,5.79
01:52:40,3.1580,0.8481,7.5388,1.5939,82.03,77.33,568.0,2.68,5.68
01:53:00,4.2440,0.9998,7.5609,1.5995,82.27,77.60,571.0,4.24,5.71
01:53:20,3.8750,0.9992,7.5817,1.6050,82.50,77.86,562.0,3.87,5.62
01:53:40,3.7860,0.9941,7.6035,1.6105,82.74,78.13,550.0,3.76,5.5
01:54:00,3.7350,0.9949,7.6235,1.6160,82.96,78.39,554.0,3.72,5.54
01:54:20,4.0910,0.9994,7.6450,1.6215,83.19,78.66,562.0,4.09,5.62
01:54:40,3.6600,0.9760,7.6663,1.6270,83.42,78.93,548.0,3.57,5.48
01:55:00,3.6750,0.9773,7.6872,1.6325,83.65,79.19,548.0,3.59,5.48
01:55:20,5.1540,0.1584,7.6962,1.6351,83.75,79.32,327.0,0.82,3.27
01:55:40,3.7140,0.9891,7.7154,1.6404,83.95,79.58,545.0,3.67,5.45
01:56:00,3.7160,0.9894,7.7360,1.6460,84.18,79.85,546.0,3.68,5.46
01:56:20,3.7030,0.9863,7.7563,1.6514,84.40,80.12,541.0,3.65,5.41
01:56:40,3.6840,0.9805,7.7764,1.6569,84.62,80.38,538.0,3.61,5.38
01:57:00,3.6660,0.9757,7.7963,1.6623,84.84,80.64,534.0,3.58,5.34
01:57:20,3.6470,0.9701,7.8161,1.6677,85.05,80.91,532.0,3.54,5.32
01:57:40,3.6320,0.9648,7.8356,1.6731,85.26,81.17,527.0,3.5,5.27
01:58:00,3.6170,0.9608,7.8549,1.6784,85.47,81.43,524.0,3.48,5.24
01:58:20,3.6090,0.9593,7.8742,1.6838,85.68,81.68,526.0,3.46,5.26
01:58:40,3.6000,0.9559,7.8933,1.6891,85.89,81.94,522.0,3.44,5.22
01:59:00,3.5930,0.9553,7.9124,1.6944,86.10,82.20,520.0,3.43,5.2
01:59:20,3.5840,0.9523,7.9314,1.6997,86.31,82.46,517.0,3.41,5.17
01:59:40,3.5740,0.9486,7.9503,1.7050,86.51,82.71,516.0,3.39,5.16
02:00:00,3.5610,0.9447,7.9690,1.7102,86.71,82.97,514.0,3.36,5.14
02:00:20,3.5540,0.9440,7.9876,1.7155,86.92,83.22,515.0,3.35,5.15
02:00:40,3.5490,0.9403,8.0062,1.7207,87.12,83.48,512.0,3.34,5.12
02:01:00,3.5410,0.9391,8.0247,1.7259,87.32,83.73,512.0,3.33,5.12
02:01:20,3.5340,0.9375,8.0431,1.7311,87.52,83.98,509.0,3.31,5.09
02:01:40,3.5320,0.9365,8.0615,1.7363,87.72,84.23,507.0,3.31,5.07
02:02:00,3.5260,0.9350,8.0798,1.7415,87.92,84.49,507.0,3.3,5.07
02:02:20,3.5210,0.9331,8.0981,1.7467,88.12,84.74,504.0,3.29,5.04
02:02:40,3.5090,0.9326,8.1163,1.7519,88.32,84.99,505.0,3.27,5.05
02:03:00,3.5120,0.9309,8.1345,1.7571,88.52,85.24,505.0,3.27,5.05
02:03:20,3.5110,0.9289,8.1526,1.7622,88.71,85.49,504.0,3.26,5.04
02:03:40,3.5150,0.9277,8.1707,1.7674,88.91,85.74,501.0,3.26,5.01
02:04:00,3.4860,0.9264,8.1886,1.7725,89.10,85.99,500.0,3.23,5.0
02:04:20,3.4750,0.9245,8.2065,1.7777,89.30,86.24,498.0,3.21,4.98
02:04:40,3.4710,0.9240,8.2244,1.7828,89.49,86.49,500.0,3.21,5.0
02:05:00,3.4670,0.9225,8.2422,1.7879,89.69,86.74,500.0,3.2,5.0
02:05:20,3.4800,0.9193,8.2600,1.7930,89.88,86.98,497.0,3.2,4.97
02:05:40,3.4660,0.9167,8.2776,1.7981,90.07,87.23,496.0,3.18,4.96
02:06:00,3.4530,0.9152,8.2952,1.8032,90.26,87.48,494.0,3.16,4.94
02:06:20,3.4560,0.9146,8.3128,1.8083,90.46,87.73,492.0,3.16,4.92
02:06:40,3.4560,0.9145,8.3303,1.8134,90.65,87.97,493.0,3.16,4.93
02:07:00,3.4490,0.9128,8.3478,1.8185,90.84,88.22,493.0,3.15,4.93
02:07:20,3.4370,0.9102,8.3653,1.8235,91.03,88.46,492.0,3.13,4.92
02:07:40,3.4350,0.9082,8.3826,1.8286,91.22,88.71,488.0,3.12,4.88
02:08:00,3.4220,0.9062,8.3999,1.8336,91.40,88.95,488.0,3.1,4.88
02:08:20,3.4150,0.9041,8.4170,1.8386,91.59,89.20,487.0,3.09,4.87
02:08:40,3.4130,0.9035,8.4342,1.8436,91.78,89.44,486.0,3.08,4.86
02:09:00,4.9720,0.5533,8.4504,1.8477,91.95,89.64,487.0,2.75,4.87
02:09:20,3.4040,0.9012,8.4674,1.8527,92.14,89.88,484.0,3.07,4.84
02:09:40,3.4050,0.9007,8.4845,1.8577,92.32,90.12,484.0,3.07,4.84
02:10:00,3.3980,0.9009,8.5015,1.8627,92.51,90.36,485.0,3.06,4.85
02:10:20,3.3950,0.8986,8.5184,1.8677,92.69,90.61,484.0,3.05,4.84
02:10:40,3.3840,0.8951,8.5353,1.8727,92.88,90.85,481.0,3.03,4.81
02:11:00,3.3760,0.8933,8.5521,1.8776,93.06,91.09,479.0,3.02,4.79
02:11:20,3.3710,0.8917,8.5688,1.8826,93.24,91.33,479.0,3.01,4.79
02:11:40,3.3680,0.8912,8.5854,1.8875,93.42,91.57,479.0,3.0,4.79
02:12:00,3.3490,0.8864,8.6020,1.8925,93.60,91.81,476.0,2.97,4.76
02:12:20,3.3270,0.8800,8.6183,1.8974,93.78,92.05,474.0,2.93,4.74
02:12:40,3.2790,0.8695,8.6338,1.9022,93.95,92.28,464.0,2.85,4.64
02:13:00,3.2550,0.8617,8.6495,1.9070,94.12,92.51,464.0,2.8,4.64
02:13:20,3.3050,0.8742,8.6654,1.9118,94.29,92.75,470.0,2.89,4.7
02:13:40,3.3300,0.8811,8.6817,1.9167,94.47,92.98,473.0,2.93,4.73
02:14:00,3.3240,0.8790,8.6979,1.9216,94.65,93.22,470.0,2.92,4.7
02:14:20,3.3350,0.8832,8.7142,1.9265,94.82,93.46,473.0,2.95,4.73
02:14:40,3.3310,0.8817,8.7305,1.9314,95.00,93.70,474.0,2.94,4.74
02:15:00,3.3190,0.8789,8.7468,1.9363,95.18,93.93,472.0,2.92,4.72
02:15:20,3.3210,0.8784,8.7630,1.9411,95.35,94.17,469.0,2.92,4.69
02:15:40,3.3260,0.8797,8.7792,1.9460,95.53,94.41,471.0,2.93,4.71
02:16:00,3.3160,0.8779,8.7954,1.9509,95.71,94.64,471.0,2.91,4.71
02:16:20,3.3190,0.8775,8.8116,1.9558,95.88,94.88,471.0,2.91,4.71
02:16:40,3.3150,0.8761,8.8277,1.9607,96.06,95.12,469.0,2.9,4.69
02:17:00,3.2120,0.8508,8.8432,1.9654,96.23,95.35,460.0,2.73,4.6
02:17:20,5.1610,0.0945,8.8453,1.9658,96.25,95.37,240.0,0.49,2.4
02:17:40,5.1590,0.0089,8.8458,1.9659,96.25,95.37,41.6,0.05,0.416
02:18:00,5.1590,0.0091,8.8460,1.9660,96.26,95.38,38.3,0.05,0.383
02:18:20,5.1610,0.0090,8.8463,1.9660,96.26,95.38,40.6,0.05,0.406
02:18:40,5.1620,0.0090,8.8465,1.9661,96.26,95.38,41.1,0.05,0.411
02:19:00,5.1630,0.0089,8.8468,1.9661,96.27,95.38,40.2,0.05,0.402
02:19:20,5.1640,0.0090,8.8470,1.9662,96.27,95.39,42.6,0.05,0.426
02:19:40,5.1640,0.0090,8.8524,1.9675,96.33,95.45,417.0,0.05,4.17
02:20:00,4.5290,0.2036,8.8550,1.9681,96.36,95.48,334.0,0.92,3.34
02:20:20,2.8150,0.0666,8.8557,1.9683,96.36,95.49,135.9,0.19,1.359
02:20:40,3.1950,0.8491,8.8636,1.9707,96.45,95.60,456.0,2.71,4.56
02:21:00,3.1770,0.8451,8.8786,1.9754,96.61,95.83,453.0,2.68,4.53
02:21:20,3.1590,0.8411,8.8934,1.9801,96.77,96.06,452.0,2.66,4.52
02:21:40,3.1360,0.8366,8.9080,1.9847,96.93,96.28,450.0,2.62,4.5
02:22:00,3.1210,0.8332,8.9225,1.9894,97.09,96.51,445.0,2.6,4.45
02:22:20,3.1200,0.8326,8.9369,1.9940,97.25,96.73,445.0,2.6,4.45
02:22:40,3.1140,0.8314,8.9513,1.9986,97.40,96.96,443.0,2.59,4.43
02:23:00,3.0980,0.8280,8.9656,2.0032,97.56,97.18,442.0,2.57,4.42
02:23:20,3.0850,0.8252,8.9798,2.0078,97.71,97.40,440.0,2.55,4.4
02:23:40,3.0740,0.8219,8.9938,2.0124,97.87,97.63,437.0,2.53,4.37
02:24:00,3.0510,0.8186,9.0078,2.0169,98.02,97.85,435.0,2.5,4.35
02:24:20,2.9970,0.8138,9.0214,2.0215,98.17,98.07,431.0,2.44,4.31
02:24:40,5.1660,0.0090,9.0282,2.0238,98.24,98.18,432.0,0.05,4.32
02:25:00,5.1670,0.0090,9.0327,2.0249,98.29,98.23,430.0,0.05,4.3
02:25:20,5.1670,0.0090,9.0329,2.0249,98.29,98.23,430.0,0.05,4.3
02:25:40,5.1360,0.1444,9.0420,2.0268,98.39,98.32,427.0,0.74,4.27
02:26:00,5.1680,0.0089,9.0422,2.0268,98.39,98.33,427.0,0.05,4.27
02:26:20,5.1670,0.0090,9.0447,2.0273,98.42,98.35,426.0,0.05,4.26
02:26:40,5.1680,0.0090,9.0450,2.0273,98.42,98.35,423.0,0.05,4.23
02:27:00,5.1620,0.0326,9.0512,2.0289,98.49,98.43,427.0,0.17,4.27
02:27:20,5.1690,0.0089,9.0515,2.0289,98.49,98.43,422.0,0.05,4.22
02:27:40,5.1690,0.0090,9.0572,2.0303,98.56,98.50,421.0,0.05,4.21
02:28:00,4.1310,0.4370,9.0624,2.0316,98.61,98.56,422.0,1.81,4.22
02:28:20,5.1690,0.0090,9.0626,2.0316,98.61,98.56,423.0,0.05,4.23
02:28:40,5.1690,0.0089,9.0681,2.0329,98.67,98.62,421.0,0.05,4.21
02:29:00,5.1260,0.1581,9.0705,2.0334,98.70,98.65,421.0,0.81,4.21
02:29:20,5.1220,0.1987,9.0734,2.0340,98.73,98.67,420.0,1.02,4.2
02:29:40,4.0810,0.4328,9.0785,2.0352,98.79,98.73,420.0,1.77,4.2
02:30:00,4.2100,0.3157,9.0823,2.0361,98.83,98.78,420.0,1.33,4.2
02:30:20,4.3360,0.3269,9.0864,2.0370,98.87,98.82,418.0,1.42,4.18
02:30:40,3.9070,0.3334,9.0901,2.0380,98.91,98.87,416.0,1.3,4.16
02:31:00,5.1670,0.0147,9.0904,2.0381,98.92,98.87,416.0,0.08,4.16
02:31:20,5.1700,0.0090,9.0907,2.0381,98.92,98.87,411.0,0.05,4.11
02:31:40,5.1700,0.0089,9.0945,2.0390,98.96,98.92,408.0,0.05,4.08
02:32:00,4.0330,0.3255,9.0983,2.0400,99.00,98.96,408.0,1.31,4.08
02:32:20,5.1700,0.0090,9.0985,2.0400,99.01,98.97,404.0,0.05,4.04
02:32:40,5.1700,0.0090,9.1010,2.0405,99.03,98.99,404.0,0.05,4.04
02:33:00,4.4230,0.2103,9.1037,2.0411,99.06,99.02,407.0,0.93,4.07
02:33:20,5.1700,0.0090,9.1039,2.0411,99.06,99.02,407.0,0.05,4.07
02:33:40,5.1700,0.0089,9.1065,2.0417,99.09,99.05,406.0,0.05,4.06
02:34:00,5.1700,0.0091,9.1067,2.0418,99.09,99.05,407.0,0.05,4.07
02:34:20,5.1710,0.0089,9.1092,2.0424,99.12,99.08,408.0,0.05,4.08
02:34:40,4.1620,0.3032,9.1129,2.0433,99.16,99.12,404.0,1.26,4.04
02:35:00,5.1710,0.0090,9.1131,2.0433,99.16,99.13,401.0,0.05,4.01
02:35:20,5.1710,0.0090,9.1164,2.0441,99.20,99.17,401.0,0.05,4.01
02:35:40,5.1710,0.0090,9.1167,2.0442,99.20,99.17,397.0,0.05,3.97
02:36:00,5.1710,0.0089,9.1200,2.0450,99.24,99.21,399.0,0.05,3.99
02:36:20,4.0860,0.2727,9.1232,2.0457,99.27,99.24,397.0,1.11,3.97
02:36:40,5.1710,0.0090,9.1235,2.0458,99.28,99.25,397.0,0.05,3.97
02:37:00,4.0980,0.3170,9.1288,2.0470,99.34,99.31,395.0,1.3,3.95
02:37:20,5.1710,0.0090,9.1297,2.0472,99.34,99.31,396.0,0.05,3.96
02:37:40,4.4200,0.1694,9.1319,2.0477,99.37,99.34,396.0,0.75,3.96
02:38:00,5.1710,0.0090,9.1322,2.0477,99.37,99.34,396.0,0.05,3.96
02:38:20,5.1710,0.0090,9.1359,2.0487,99.41,99.39,395.0,0.05,3.95
02:38:40,5.1710,0.0089,9.1361,2.0487,99.41,99.39,392.0,0.05,3.92
02:39:00,5.1710,0.0090,9.1386,2.0493,99.44,99.42,390.0,0.05,3.9
02:39:20,4.1460,0.2362,9.1415,2.0500,99.47,99.45,391.0,0.98,3.91
02:39:40,5.1710,0.0090,9.1417,2.0500,99.48,99.45,388.0,0.05,3.88
02:40:00,4.1370,0.2663,9.1455,2.0509,99.52,99.49,388.0,1.1,3.88
02:40:20,5.1710,0.0089,9.1458,2.0510,99.52,99.50,390.0,0.05,3.9
02:40:40,5.1710,0.0107,9.1476,2.0513,99.54,99.51,391.0,0.06,3.91
02:41:00,5.1710,0.0090,9.1478,2.0514,99.54,99.52,388.0,0.05,3.88
02:41:20,5.1710,0.0090,9.1499,2.0518,99.56,99.54,387.0,0.05,3.87
02:41:40,5.1670,0.0214,9.1503,2.0519,99.57,99.54,389.0,0.11,3.89
02:42:00,5.1710,0.0090,9.1528,2.0524,99.60,99.57,388.0,0.05,3.88
02:42:20,4.1210,0.2819,9.1561,2.0532,99.63,99.61,388.0,1.16,3.88
02:42:40,5.1710,0.0089,9.1564,2.0533,99.64,99.61,393.0,0.05,3.93
02:43:00,4.7860,0.1955,9.1591,2.0538,99.66,99.64,391.0,0.94,3.91
02:43:20,5.1710,0.0089,9.1594,2.0539,99.67,99.64,387.0,0.05,3.87
02:43:40,4.4030,0.1458,9.1613,2.0543,99.69,99.66,386.0,0.64,3.86
02:44:00,5.1710,0.0090,9.1616,2.0544,99.69,99.66,384.0,0.05,3.84
02:44:20,5.1710,0.0090,9.1636,2.0548,99.71,99.68,386.0,0.05,3.86
02:44:40,4.2500,0.1325,9.1653,2.0552,99.73,99.70,383.0,0.56,3.83
02:45:00,5.1710,0.0231,9.1658,2.0553,99.74,99.71,378.0,0.12,3.78
02:45:20,5.1710,0.0090,9.1660,2.0553,99.74,99.71,374.0,0.05,3.74
02:45:40,5.1710,0.0090,9.1663,2.0554,99.74,99.71,374.0,0.05,3.74
02:46:00,5.1710,0.0219,9.1667,2.0554,99.75,99.72,370.0,0.11,3.7
02:46:20,4.1280,0.1308,9.1684,2.0558,99.77,99.73,367.0,0.54,3.67
02:46:40,5.1680,0.0251,9.1689,2.0559,99.77,99.74,368.0,0.13,3.68
02:47:00,5.1710,0.0089,9.1691,2.0560,99.77,99.74,363.0,0.05,3.63
02:47:20,5.1710,0.0090,9.1704,2.0563,99.79,99.76,364.0,0.05,3.64
02:47:40,5.1710,0.0090,9.1718,2.0567,99.80,99.78,363.0,0.05,3.63
02:48:00,4.6130,0.0929,9.1731,2.0570,99.82,99.79,363.0,0.43,3.63
02:48:20,5.1710,0.0089,9.1734,2.0570,99.82,99.79,361.0,0.05,3.61
02:48:40,5.1710,0.0090,9.1743,2.0573,99.83,99.81,365.0,0.05,3.65
02:49:00,4.3800,0.1098,9.1758,2.0577,99.85,99.82,365.0,0.48,3.65
02:49:20,5.1710,0.0090,9.1760,2.0577,99.85,99.83,364.0,0.05,3.64
02:49:40,5.1710,0.0090,9.1770,2.0580,99.86,99.84,363.0,0.05,3.63
02:50:00,3.5400,0.1116,9.1783,2.0584,99.87,99.86,366.0,0.4,3.66
02:50:20,5.1710,0.0090,9.1785,2.0584,99.88,99.86,364.0,0.05,3.64
02:50:40,5.1710,0.0090,9.1794,2.0588,99.89,99.88,365.0,0.05,3.65
02:51:00,4.2990,0.0652,9.1803,2.0590,99.90,99.89,363.0,0.28,3.63
02:51:20,5.1710,0.0089,9.1807,2.0590,99.90,99.89,363.0,0.05,3.63
02:51:40,4.2600,0.0870,9.1818,2.0593,99.91,99.90,363.0,0.37,3.63
02:52:00,5.1100,0.0686,9.1829,2.0595,99.92,99.91,362.0,0.35,3.62
02:52:20,5.1700,0.0089,9.1841,2.0597,99.94,99.92,362.0,0.05,3.62
02:52:40,2.8660,0.1183,9.1852,2.0601,99.95,99.94,363.0,0.34,3.63
02:53:00,5.1700,0.0089,9.1854,2.0601,99.95,99.94,363.0,0.05,3.63
02:53:20,5.1710,0.0089,9.1867,2.0605,99.96,99.96,362.0,0.05,3.62
02:53:40,3.4450,0.1139,9.1879,2.0608,99.98,99.98,362.0,0.39,3.62
02:54:00,5.1700,0.0090,9.1881,2.0609,99.98,99.98,363.0,0.05,3.63
02:54:20,3.7680,0.1353,9.1897,2.0613,100.00,100.00,363.0,0.51,3.63
02:54:40,5.1700,0.0090,9.1899,2.0613,100.00,100.00,359.0,0.05,3.59
02:54:50,4.0960,0.1086,9.1912,2.0616,100.01,100.01,351.0,0.44,3.51