File: output/10/gznomad14-3.csv
Time,Voltage(V),Current(A),Energy(Wh),Capacity(Ah),Energy Proportion(%),Capacity Proportion(%),Irradiance(W/m2),Power(W),Sunlight Level
00:00:00,4.8530,1.4989,0.0202,0.0042,0.13,0.13,889.0,7.27,8.89
00:00:20,4.8610,1.4992,0.0607,0.0125,0.38,0.38,885.0,7.29,8.85
00:00:40,4.8630,1.4991,0.1012,0.0208,0.63,0.63,887.0,7.29,8.87
00:01:00,4.8610,1.4992,0.1417,0.0292,0.88,0.88,886.0,7.29,8.86
00:01:20,4.8610,1.4992,0.1822,0.0375,1.14,1.13,884.0,7.29,8.84
00:01:40,4.8620,1.4989,0.2226,0.0458,1.39,1.38,883.0,7.29,8.83
00:02:00,4.8620,1.4990,0.2631,0.0541,1.64,1.63,883.0,7.29,8.83
00:02:20,4.8620,1.4990,0.3036,0.0625,1.89,1.89,885.0,7.29,8.85
00:02:40,4.8620,1.4992,0.3441,0.0708,2.14,2.14,884.0,7.29,8.84
00:03:00,4.8630,1.4988,0.3846,0.0791,2.40,2.39,883.0,7.29,8.83
00:03:20,4.8640,1.4988,0.4251,0.0874,2.65,2.64,882.0,7.29,8.82
00:03:40,4.8640,1.4991,0.4656,0.0958,2.90,2.89,875.0,7.29,8.75
00:04:00,4.8640,1.4993,0.5061,0.1041,3.15,3.14,883.0,7.29,8.83
00:04:20,4.8640,1.4990,0.5466,0.1124,3.41,3.40,878.0,7.29,8.78
00:04:40,4.8650,1.4992,0.5871,0.1208,3.66,3.65,874.0,7.29,8.74
00:05:00,4.8650,1.4989,0.6277,0.1291,3.91,3.90,879.0,7.29,8.79
00:05:20,4.8660,1.4986,0.6682,0.1374,4.16,4.15,880.0,7.29,8.8
00:05:40,4.8660,1.4981,0.7087,0.1457,4.42,4.40,875.0,7.29,8.75
00:06:00,4.8660,1.4987,0.7492,0.1541,4.67,4.65,875.0,7.29,8.75
00:06:20,4.8660,1.4986,0.7897,0.1624,4.92,4.90,876.0,7.29,8.76
00:06:40,4.8670,1.4989,0.8302,0.1707,5.17,5.16,877.0,7.3,8.77
00:07:00,4.8670,1.4986,0.8707,0.1790,5.43,5.41,875.0,7.29,8.75
00:07:20,4.8670,1.4986,0.9113,0.1874,5.68,5.66,880.0,7.29,8.8
00:07:40,4.8670,1.4984,0.9518,0.1957,5.93,5.91,875.0,7.29,8.75
00:08:00,4.8670,1.4986,0.9923,0.2040,6.18,6.16,879.0,7.29,8.79
00:08:20,4.8670,1.4994,1.0328,0.2123,6.44,6.41,878.0,7.3,8.78
00:08:40,4.8670,1.4983,1.0734,0.2207,6.69,6.66,879.0,7.29,8.79
00:09:00,4.8670,1.4984,1.1139,0.2290,6.94,6.92,877.0,7.29,8.77
00:09:20,4.8670,1.4984,1.1544,0.2373,7.19,7.17,877.0,7.29,8.77
00:09:40,4.8680,1.4992,1.1949,0.2456,7.45,7.42,875.0,7.3,8.75
00:10:00,4.8680,1.4986,1.2355,0.2540,7.70,7.67,875.0,7.3,8.75
00:10:20,4.8680,1.4985,1.2760,0.2623,7.95,7.92,873.0,7.29,8.73
00:10:40,4.8690,1.4988,1.3165,0.2706,8.20,8.17,878.0,7.3,8.78
00:11:00,4.8690,1.4987,1.3571,0.2789,8.46,8.42,876.0,7.3,8.76
00:11:20,4.8680,1.4988,1.3976,0.2873,8.71,8.68,874.0,7.3,8.74
00:11:40,4.8680,1.4988,1.4381,0.2956,8.96,8.93,871.0,7.3,8.71
00:12:00,4.8680,1.4984,1.4787,0.3039,9.22,9.18,864.0,7.29,8.64
00:12:20,4.8680,1.4987,1.5192,0.3123,9.47,9.43,873.0,7.3,8.73
00:12:40,4.8680,1.4986,1.5597,0.3206,9.72,9.68,873.0,7.3,8.73
00:13:00,4.8680,1.4986,1.6003,0.3289,9.97,9.93,874.0,7.3,8.74
00:13:20,4.8680,1.4986,1.6408,0.3372,10.23,10.18,877.0,7.3,8.77
00:13:40,4.8680,1.4987,1.6813,0.3456,10.48,10.44,875.0,7.3,8.75
00:14:00,4.8680,1.4984,1.7218,0.3539,10.73,10.69,877.0,7.29,8.77
00:14:20,4.8680,1.4982,1.7624,0.3622,10.98,10.94,878.0,7.29,8.78
00:14:40,4.8680,1.4985,1.8029,0.3705,11.24,11.19,877.0,7.29,8.77
00:15:00,4.8680,1.4982,1.8434,0.3789,11.49,11.44,876.0,7.29,8.76
00:15:20,4.8680,1.4990,1.8839,0.3872,11.74,11.69,875.0,7.3,8.75
00:15:40,4.8680,1.4985,1.9245,0.3955,11.99,11.94,875.0,7.29,8.75
00:16:00,4.8680,1.4982,1.9650,0.4038,12.25,12.20,877.0,7.29,8.77
00:16:20,4.8680,1.4990,2.0055,0.4122,12.50,12.45,876.0,7.3,8.76
00:16:40,4.8680,1.4985,2.0460,0.4205,12.75,12.70,874.0,7.29,8.74
00:17:00,4.8680,1.4983,2.0866,0.4288,13.00,12.95,876.0,7.29,8.76
00:17:20,4.8680,1.4983,2.1271,0.4371,13.26,13.20,874.0,7.29,8.74
00:17:40,4.8680,1.4984,2.1676,0.4454,13.51,13.45,878.0,7.29,8.78
00:18:00,4.8680,1.4985,2.2081,0.4538,13.76,13.70,874.0,7.29,8.74
00:18:20,4.8690,1.4982,2.2487,0.4621,14.01,13.96,876.0,7.29,8.76
00:18:40,4.8680,1.4985,2.2892,0.4704,14.27,14.21,878.0,7.29,8.78
00:19:00,4.8690,1.4983,2.3297,0.4787,14.52,14.46,880.0,7.3,8.8
00:19:20,4.8680,1.4983,2.3702,0.4871,14.77,14.71,879.0,7.29,8.79
00:19:40,4.8680,1.4985,2.4108,0.4954,15.02,14.96,877.0,7.29,8.77
00:20:00,4.8680,1.4985,2.4513,0.5037,15.28,15.21,875.0,7.29,8.75
00:20:20,4.8690,1.4986,2.4918,0.5120,15.53,15.46,875.0,7.3,8.75
00:20:40,4.8690,1.4982,2.5324,0.5204,15.78,15.72,878.0,7.29,8.78
00:21:00,4.8690,1.4983,2.5729,0.5287,16.03,15.97,875.0,7.3,8.75
00:21:20,4.8690,1.4984,2.6134,0.5370,16.29,16.22,876.0,7.3,8.76
00:21:40,4.8690,1.4984,2.6539,0.5453,16.54,16.47,879.0,7.3,8.79
00:22:00,4.8690,1.4984,2.6945,0.5537,16.79,16.72,879.0,7.3,8.79
00:22:20,4.8690,1.4984,2.7350,0.5620,17.05,16.97,875.0,7.3,8.75
00:22:40,4.8680,1.4982,2.7755,0.5703,17.30,17.22,877.0,7.29,8.77
00:23:00,4.8680,1.4982,2.8160,0.5786,17.55,17.48,879.0,7.29,8.79
00:23:20,4.8680,1.4977,2.8565,0.5870,17.80,17.73,872.0,7.29,8.72
00:23:40,4.8680,1.4983,2.8971,0.5953,18.06,17.98,872.0,7.29,8.72
00:24:00,4.8680,1.4984,2.9376,0.6036,18.31,18.23,872.0,7.29,8.72
00:24:20,4.8680,1.4990,2.9781,0.6119,18.56,18.48,878.0,7.3,8.78
00:24:40,4.8690,1.4986,3.0187,0.6203,18.81,18.73,876.0,7.3,8.76
00:25:00,4.8690,1.4984,3.0592,0.6286,19.07,18.98,876.0,7.3,8.76
00:25:20,4.8690,1.4979,3.0997,0.6369,19.32,19.24,875.0,7.29,8.75
00:25:40,4.8690,1.4985,3.1402,0.6452,19.57,19.49,878.0,7.3,8.78
00:26:00,4.8680,1.4986,3.1808,0.6536,19.82,19.74,879.0,7.3,8.79
00:26:20,4.8690,1.4983,3.2213,0.6619,20.08,19.99,880.0,7.3,8.8
00:26:40,4.8690,1.4982,3.2618,0.6702,20.33,20.24,879.0,7.29,8.79
00:27:00,4.8680,1.4982,3.3023,0.6785,20.58,20.49,878.0,7.29,8.78
00:27:20,4.8680,1.4982,3.3429,0.6868,20.83,20.74,876.0,7.29,8.76
00:27:40,4.8680,1.4969,3.3834,0.6952,21.09,21.00,877.0,7.29,8.77
00:28:00,4.8680,1.4996,3.4239,0.7035,21.34,21.25,878.0,7.3,8.78
00:28:20,4.8680,1.4970,3.4644,0.7118,21.59,21.50,876.0,7.29,8.76
00:28:40,4.8680,1.4968,3.5049,0.7201,21.84,21.75,878.0,7.29,8.78
00:29:00,4.8680,1.4987,3.5454,0.7285,22.10,22.00,878.0,7.3,8.78
00:29:20,4.8680,1.4986,3.5859,0.7368,22.35,22.25,880.0,7.3,8.8
00:29:40,4.8680,1.4983,3.6265,0.7451,22.60,22.50,880.0,7.29,8.8
00:30:00,4.8680,1.4984,3.6670,0.7534,22.85,22.75,880.0,7.29,8.8
00:30:20,4.8680,1.4987,3.7075,0.7617,23.11,23.01,882.0,7.3,8.82
00:30:40,4.8680,1.4969,3.7480,0.7701,23.36,23.26,880.0,7.29,8.8
00:31:00,4.8670,1.4989,3.7885,0.7784,23.61,23.51,878.0,7.3,8.78
00:31:20,4.8680,1.4977,3.8290,0.7867,23.86,23.76,876.0,7.29,8.76
00:31:40,4.8680,1.4966,3.8695,0.7950,24.12,24.01,876.0,7.29,8.76
00:32:00,4.8680,1.4965,3.9100,0.8034,24.37,24.26,877.0,7.28,8.77
00:32:20,4.8680,1.4976,3.9505,0.8117,24.62,24.51,874.0,7.29,8.74
00:32:40,4.8680,1.4994,3.9910,0.8200,24.87,24.76,873.0,7.3,8.73
00:33:00,4.8680,1.4970,4.0315,0.8283,25.13,25.02,873.0,7.29,8.73
00:33:20,4.8680,1.4976,4.0721,0.8366,25.38,25.27,875.0,7.29,8.75
00:33:40,4.8680,1.4997,4.1126,0.8450,25.63,25.52,874.0,7.3,8.74
00:34:00,4.8680,1.4967,4.1531,0.8533,25.88,25.77,874.0,7.29,8.74
00:34:20,4.8680,1.4962,4.1936,0.8616,26.14,26.02,873.0,7.28,8.73
00:34:40,4.8680,1.4968,4.2341,0.8699,26.39,26.27,874.0,7.29,8.74
00:35:00,4.8680,1.4962,4.2746,0.8783,26.64,26.52,872.0,7.28,8.72
00:35:20,4.8680,1.4971,4.3152,0.8866,26.89,26.78,873.0,7.29,8.73
00:35:40,4.8680,1.4994,4.3557,0.8949,27.15,27.03,874.0,7.3,8.74
00:36:00,4.8680,1.5002,4.3962,0.9032,27.40,27.28,874.0,7.3,8.74
00:36:20,4.8670,1.4999,4.4368,0.9116,27.65,27.53,871.0,7.3,8.71
00:36:40,4.8690,1.4986,4.4773,0.9199,27.90,27.78,875.0,7.3,8.75
00:37:00,4.8680,1.4994,4.5178,0.9282,28.16,28.03,872.0,7.3,8.72
00:37:20,4.8670,1.4969,4.5583,0.9365,28.41,28.28,874.0,7.29,8.74
00:37:40,4.8680,1.4972,4.5988,0.9449,28.66,28.54,869.0,7.29,8.69
00:38:00,4.8680,1.4997,4.6394,0.9532,28.91,28.79,874.0,7.3,8.74
00:38:20,4.8680,1.4999,4.6800,0.9615,29.17,29.04,871.0,7.3,8.71
00:38:40,4.8680,1.4997,4.7205,0.9699,29.42,29.29,873.0,7.3,8.73
00:39:00,4.8680,1.4996,4.7611,0.9782,29.67,29.54,873.0,7.3,8.73
00:39:20,4.8680,1.4981,4.8016,0.9865,29.92,29.79,873.0,7.29,8.73
00:39:40,4.8680,1.4992,4.8421,0.9948,30.18,30.05,873.0,7.3,8.73
00:40:00,4.8680,1.4981,4.8826,1.0032,30.43,30.30,872.0,7.29,8.72
00:40:20,4.8680,1.4992,4.9232,1.0115,30.68,30.55,875.0,7.3,8.75
00:40:40,4.8670,1.4972,4.9637,1.0198,30.94,30.80,876.0,7.29,8.76
00:41:00,4.8670,1.4963,5.0042,1.0281,31.19,31.05,876.0,7.28,8.76
00:41:20,4.8670,1.4969,5.0447,1.0364,31.44,31.30,873.0,7.29,8.73
00:41:40,4.8670,1.4999,5.0852,1.0448,31.69,31.55,873.0,7.3,8.73
00:42:00,4.8670,1.4975,5.1257,1.0531,31.94,31.81,873.0,7.29,8.73
00:42:20,4.8670,1.4979,5.1663,1.0614,32.20,32.06,877.0,7.29,8.77
00:42:40,4.8670,1.5005,5.2068,1.0698,32.45,32.31,874.0,7.3,8.74
00:43:00,4.8670,1.4947,5.2473,1.0781,32.70,32.56,871.0,7.27,8.71
00:43:20,4.8670,1.4982,5.2879,1.0864,32.96,32.81,875.0,7.29,8.75
00:43:40,4.8680,1.4973,5.3284,1.0947,33.21,33.06,872.0,7.29,8.72
00:44:00,4.8680,1.4972,5.3689,1.1031,33.46,33.31,867.0,7.29,8.67
00:44:20,4.8680,1.4974,5.4094,1.1114,33.71,33.57,869.0,7.29,8.69
00:44:40,4.8680,1.4960,5.4499,1.1197,33.97,33.82,867.0,7.28,8.67
00:45:00,4.8680,1.4960,5.4904,1.1280,34.22,34.07,871.0,7.28,8.71
00:45:20,4.8670,1.4977,5.5309,1.1363,34.47,34.32,872.0,7.29,8.72
00:45:40,4.8670,1.4979,5.5713,1.1447,34.72,34.57,874.0,7.29,8.74
00:46:00,4.8670,1.5003,5.6119,1.1530,34.97,34.82,871.0,7.3,8.71
00:46:20,4.8670,1.4968,5.6524,1.1613,35.23,35.07,873.0,7.28,8.73
00:46:40,4.8680,1.4963,5.6928,1.1696,35.48,35.32,872.0,7.28,8.72
00:47:00,4.8670,1.4963,5.7333,1.1779,35.73,35.58,872.0,7.28,8.72
00:47:20,4.8670,1.4979,5.7738,1.1863,35.98,35.83,872.0,7.29,8.72
00:47:40,4.8680,1.4963,5.8143,1.1946,36.24,36.08,873.0,7.28,8.73
00:48:00,4.8660,1.4983,5.8548,1.2029,36.49,36.33,873.0,7.29,8.73
00:48:20,4.8670,1.4965,5.8953,1.2112,36.74,36.58,870.0,7.28,8.7
00:48:40,4.8670,1.4993,5.9358,1.2195,36.99,36.83,871.0,7.3,8.71
00:49:00,4.8670,1.4995,5.9764,1.2279,37.25,37.08,870.0,7.3,8.7
00:49:20,4.8670,1.4985,6.0168,1.2362,37.50,37.33,869.0,7.29,8.69
00:49:40,4.8680,1.4967,6.0574,1.2445,37.75,37.59,870.0,7.29,8.7
00:50:00,4.8670,1.4994,6.0979,1.2528,38.00,37.84,870.0,7.3,8.7
00:50:20,4.8670,1.4993,6.1384,1.2612,38.26,38.09,871.0,7.3,8.71
00:50:40,4.8670,1.4968,6.1790,1.2695,38.51,38.34,874.0,7.28,8.74
00:51:00,4.8660,1.5002,6.2195,1.2778,38.76,38.59,873.0,7.3,8.73
00:51:20,4.8680,1.4953,6.2600,1.2861,39.01,38.84,872.0,7.28,8.72
00:51:40,4.8670,1.4957,6.3005,1.2945,39.27,39.09,871.0,7.28,8.71
00:52:00,4.8660,1.5003,6.3410,1.3028,39.52,39.35,871.0,7.3,8.71
00:52:20,4.8670,1.4985,6.3815,1.3111,39.77,39.60,868.0,7.29,8.68
00:52:40,4.8660,1.5002,6.4221,1.3195,40.02,39.85,868.0,7.3,8.68
00:53:00,4.8680,1.4963,6.4625,1.3278,40.28,40.10,867.0,7.28,8.67
00:53:20,4.8670,1.4991,6.5031,1.3361,40.53,40.35,863.0,7.3,8.63
00:53:40,4.8680,1.4976,6.5436,1.3444,40.78,40.60,865.0,7.29,8.65
00:54:00,4.8680,1.4969,6.5841,1.3527,41.03,40.85,864.0,7.29,8.64
00:54:20,4.8670,1.4962,6.6245,1.3610,41.29,41.11,864.0,7.28,8.64
00:54:40,4.8680,1.4950,6.6650,1.3694,41.54,41.36,867.0,7.28,8.67
00:55:00,4.8670,1.5004,6.7056,1.3777,41.79,41.61,862.0,7.3,8.62
00:55:20,4.8670,1.4996,6.7461,1.3860,42.04,41.86,862.0,7.3,8.62
00:55:40,4.8670,1.4989,6.7866,1.3944,42.30,42.11,863.0,7.3,8.63
00:56:00,4.8670,1.4982,6.8272,1.4027,42.55,42.36,862.0,7.29,8.62
00:56:20,4.8660,1.5001,6.8677,1.4110,42.80,42.61,867.0,7.3,8.67
00:56:40,4.8670,1.4968,6.9082,1.4193,43.05,42.87,863.0,7.28,8.63
00:57:00,4.8660,1.5006,6.9488,1.4277,43.31,43.12,865.0,7.3,8.65
00:57:20,4.8660,1.4960,6.9893,1.4360,43.56,43.37,863.0,7.28,8.63
00:57:40,4.8650,1.4999,7.0298,1.4443,43.81,43.62,863.0,7.3,8.63
00:58:00,4.8660,1.4946,7.0703,1.4526,44.06,43.87,863.0,7.27,8.63
00:58:20,4.8660,1.4979,7.1108,1.4610,44.32,44.12,863.0,7.29,8.63
00:58:40,4.8660,1.4960,7.1512,1.4693,44.57,44.37,863.0,7.28,8.63
00:59:00,4.8660,1.4984,7.1917,1.4776,44.82,44.63,863.0,7.29,8.63
00:59:20,4.8660,1.4950,7.2321,1.4859,45.07,44.88,861.0,7.27,8.61
00:59:40,4.8650,1.5003,7.2727,1.4942,45.33,45.13,862.0,7.3,8.62
01:00:00,4.8660,1.4973,7.3132,1.5026,45.58,45.38,859.0,7.29,8.59
01:00:20,4.8650,1.4979,7.3536,1.5109,45.83,45.63,862.0,7.29,8.62
01:00:40,4.8660,1.4963,7.3941,1.5192,46.08,45.88,860.0,7.28,8.6
01:01:00,4.8650,1.4988,7.4346,1.5275,46.33,46.13,861.0,7.29,8.61
01:01:20,4.8650,1.4962,7.4751,1.5358,46.59,46.38,859.0,7.28,8.59
01:01:40,4.8650,1.4976,7.5155,1.5442,46.84,46.64,860.0,7.29,8.6
01:02:00,4.8650,1.4981,7.5560,1.5525,47.09,46.89,858.0,7.29,8.58
01:02:20,4.8650,1.4980,7.5965,1.5608,47.34,47.14,862.0,7.29,8.62
01:02:40,4.8650,1.4994,7.6370,1.5691,47.60,47.39,857.0,7.29,8.57
01:03:00,4.8650,1.4985,7.6775,1.5774,47.85,47.64,859.0,7.29,8.59
01:03:20,4.8640,1.4999,7.7180,1.5858,48.10,47.89,858.0,7.3,8.58
01:03:40,4.8650,1.4953,7.7585,1.5941,48.35,48.14,856.0,7.27,8.56
01:04:00,4.8650,1.4957,7.7989,1.6024,48.60,48.39,857.0,7.28,8.57
01:04:20,4.8650,1.4999,7.8394,1.6107,48.86,48.65,854.0,7.3,8.54
01:04:40,4.8650,1.4991,7.8799,1.6190,49.11,48.90,853.0,7.29,8.53
01:05:00,4.8650,1.4971,7.9204,1.6274,49.36,49.15,854.0,7.28,8.54
01:05:20,4.8650,1.4963,7.9608,1.6357,49.61,49.40,851.0,7.28,8.51
01:05:40,4.8650,1.4989,8.0013,1.6440,49.87,49.65,853.0,7.29,8.53
01:06:00,4.8660,1.4964,8.0418,1.6523,50.12,49.90,850.0,7.28,8.5
01:06:20,4.8660,1.4976,8.0823,1.6607,50.37,50.15,853.0,7.29,8.53
01:06:40,4.8660,1.4987,8.1229,1.6690,50.62,50.41,854.0,7.29,8.54
01:07:00,4.8650,1.4990,8.1633,1.6773,50.88,50.66,856.0,7.29,8.56
01:07:20,4.8650,1.4986,8.2038,1.6856,51.13,50.91,854.0,7.29,8.54
01:07:40,4.8650,1.4960,8.2443,1.6939,51.38,51.16,853.0,7.28,8.53
01:08:00,4.8660,1.4958,8.2848,1.7023,51.63,51.41,853.0,7.28,8.53
01:08:20,4.8660,1.4965,8.3253,1.7106,51.89,51.66,850.0,7.28,8.5
01:08:40,4.8650,1.4994,8.3658,1.7189,52.14,51.91,848.0,7.29,8.48
01:09:00,4.8660,1.4951,8.4062,1.7272,52.39,52.16,848.0,7.28,8.48
01:09:20,4.8660,1.4995,8.4467,1.7355,52.64,52.42,848.0,7.3,8.48
01:09:40,4.8660,1.4966,8.4872,1.7439,52.89,52.67,845.0,7.28,8.45
01:10:00,4.8660,1.4984,8.5277,1.7522,53.15,52.92,849.0,7.29,8.49
01:10:20,4.8660,1.4959,8.5681,1.7605,53.40,53.17,849.0,7.28,8.49
01:10:40,4.8660,1.4993,8.6087,1.7688,53.65,53.42,845.0,7.3,8.45
01:11:00,4.8650,1.4995,8.6492,1.7772,53.90,53.67,844.0,7.3,8.44
01:11:20,4.8650,1.4983,8.6897,1.7855,54.16,53.92,846.0,7.29,8.46
01:11:40,4.8640,1.4988,8.7302,1.7938,54.41,54.18,848.0,7.29,8.48
01:12:00,4.8640,1.4980,8.7707,1.8021,54.66,54.43,851.0,7.29,8.51
01:12:20,4.8640,1.4989,8.8111,1.8104,54.91,54.68,848.0,7.29,8.48
01:12:40,4.8640,1.4987,8.8516,1.8188,55.17,54.93,851.0,7.29,8.51
01:13:00,4.8640,1.4983,8.8921,1.8271,55.42,55.18,851.0,7.29,8.51
01:13:20,4.8640,1.4979,8.9326,1.8354,55.67,55.43,849.0,7.29,8.49
01:13:40,4.8640,1.4966,8.9730,1.8437,55.92,55.68,851.0,7.28,8.51
01:14:00,4.8640,1.4975,9.0135,1.8521,56.17,55.93,851.0,7.28,8.51
01:14:20,4.8640,1.4979,9.0540,1.8604,56.43,56.19,846.0,7.29,8.46
01:14:40,4.8640,1.4980,9.0945,1.8687,56.68,56.44,848.0,7.29,8.48
01:15:00,4.8640,1.4976,9.1349,1.8770,56.93,56.69,848.0,7.28,8.48
01:15:20,4.8640,1.4977,9.1754,1.8853,57.18,56.94,847.0,7.28,8.47
01:15:40,4.8640,1.4973,9.2159,1.8937,57.44,57.19,845.0,7.28,8.45
01:16:00,4.8640,1.4985,9.2564,1.9020,57.69,57.44,845.0,7.29,8.45
01:16:20,4.8640,1.4967,9.2968,1.9103,57.94,57.69,847.0,7.28,8.47
01:16:40,4.8640,1.4982,9.3373,1.9186,58.19,57.95,845.0,7.29,8.45
01:17:00,4.8630,1.4993,9.3778,1.9270,58.44,58.20,850.0,7.29,8.5
01:17:20,4.8640,1.4981,9.4183,1.9353,58.70,58.45,846.0,7.29,8.46
01:17:40,4.8630,1.4974,9.4587,1.9436,58.95,58.70,845.0,7.28,8.45
01:18:00,4.8630,1.4964,9.4992,1.9519,59.20,58.95,849.0,7.28,8.49
01:18:20,4.8630,1.4991,9.5396,1.9602,59.45,59.20,849.0,7.29,8.49
01:18:40,4.8640,1.4959,9.5801,1.9685,59.71,59.45,848.0,7.28,8.48
01:19:00,4.8630,1.4993,9.6206,1.9769,59.96,59.70,848.0,7.29,8.48
01:19:20,4.8640,1.4988,9.6611,1.9852,60.21,59.96,851.0,7.29,8.51
01:19:40,4.8640,1.4958,9.7015,1.9935,60.46,60.21,847.0,7.28,8.47
01:20:00,4.8640,1.4958,9.7419,2.0018,60.71,60.46,848.0,7.28,8.48
01:20:20,4.8640,1.4988,9.7824,2.0101,60.97,60.71,849.0,7.29,8.49
01:20:40,4.8640,1.5003,9.8230,2.0185,61.22,60.96,851.0,7.3,8.51
01:21:00,4.8640,1.4961,9.8634,2.0268,61.47,61.21,849.0,7.28,8.49
01:21:20,4.8630,1.4994,9.9039,2.0351,61.72,61.46,845.0,7.29,8.45
01:21:40,4.8630,1.4994,9.9444,2.0434,61.98,61.71,843.0,7.29,8.43
01:22:00,4.8630,1.4975,9.9849,2.0518,62.23,61.97,844.0,7.28,8.44
01:22:20,4.8620,1.4996,10.0253,2.0601,62.48,62.22,840.0,7.29,8.4
01:22:40,4.8630,1.5002,10.0658,2.0684,62.73,62.47,840.0,7.3,8.4
01:23:00,4.8640,1.4973,10.1063,2.0767,62.99,62.72,837.0,7.28,8.37
01:23:20,4.8640,1.4963,10.1467,2.0851,63.24,62.97,841.0,7.28,8.41
01:23:40,4.8620,1.4994,10.1872,2.0934,63.49,63.22,844.0,7.29,8.44
01:24:00,4.8640,1.4996,10.2278,2.1017,63.74,63.47,846.0,7.29,8.46
01:24:20,4.8640,1.4966,10.2682,2.1100,63.99,63.73,842.0,7.28,8.42
01:24:40,4.8630,1.4951,10.3087,2.1183,64.25,63.98,838.0,7.27,8.38
01:25:00,4.8630,1.4998,10.3491,2.1267,64.50,64.23,838.0,7.29,8.38
01:25:20,4.8630,1.4991,10.3896,2.1350,64.75,64.48,838.0,7.29,8.38
01:25:40,4.8630,1.4967,10.4301,2.1433,65.00,64.73,837.0,7.28,8.37
01:26:00,4.8630,1.4983,10.4706,2.1516,65.26,64.98,835.0,7.29,8.35
01:26:20,4.8630,1.4995,10.5111,2.1600,65.51,65.23,830.0,7.29,8.3
01:26:40,4.8630,1.4996,10.5516,2.1683,65.76,65.49,838.0,7.29,8.38
01:27:00,4.8630,1.4996,10.5921,2.1766,66.01,65.74,839.0,7.29,8.39
01:27:20,4.8640,1.4989,10.6326,2.1850,66.27,65.99,835.0,7.29,8.35
01:27:40,4.8640,1.4990,10.6731,2.1933,66.52,66.24,830.0,7.29,8.3
01:28:00,4.8630,1.5003,10.7136,2.2016,66.77,66.49,834.0,7.3,8.34
01:28:20,4.8630,1.4985,10.7541,2.2099,67.02,66.74,834.0,7.29,8.34
01:28:40,4.8630,1.5001,10.7946,2.2183,67.27,66.99,834.0,7.29,8.34
01:29:00,4.8620,1.5001,10.8351,2.2266,67.53,67.25,836.0,7.29,8.36
01:29:20,4.8630,1.4950,10.8755,2.2349,67.78,67.50,834.0,7.27,8.34
01:29:40,4.8620,1.5000,10.9160,2.2432,68.03,67.75,828.0,7.29,8.28
01:30:00,4.8620,1.4969,10.9564,2.2515,68.28,68.00,829.0,7.28,8.29
01:30:20,4.8630,1.4967,10.9969,2.2599,68.54,68.25,828.0,7.28,8.28
01:30:40,4.8630,1.4966,11.0373,2.2682,68.79,68.50,830.0,7.28,8.3
01:31:00,4.8620,1.5006,11.0778,2.2765,69.04,68.75,828.0,7.3,8.28
01:31:20,4.8620,1.4978,11.1183,2.2848,69.29,69.01,832.0,7.28,8.32
01:31:40,4.8630,1.4963,11.1588,2.2932,69.54,69.26,831.0,7.28,8.31
01:32:00,4.8630,1.4985,11.1992,2.3015,69.80,69.51,828.0,7.29,8.28
01:32:20,4.8630,1.4958,11.2397,2.3098,70.05,69.76,831.0,7.27,8.31
01:32:40,4.8630,1.4966,11.2801,2.3181,70.30,70.01,827.0,7.28,8.27
01:33:00,4.8630,1.4963,11.3206,2.3264,70.55,70.26,820.0,7.28,8.2
01:33:20,4.8630,1.4993,11.3611,2.3348,70.81,70.51,818.0,7.29,8.18
01:33:40,4.8620,1.4998,11.4016,2.3431,71.06,70.76,816.0,7.29,8.16
01:34:00,4.8620,1.4965,11.4420,2.3514,71.31,71.02,816.0,7.28,8.16
01:34:20,4.8630,1.4996,11.4825,2.3597,71.56,71.27,817.0,7.29,8.17
01:34:40,4.8630,1.4985,11.5230,2.3681,71.81,71.52,818.0,7.29,8.18
01:35:00,4.8620,1.4969,11.5635,2.3764,72.07,71.77,817.0,7.28,8.17
01:35:20,4.8630,1.4996,11.6040,2.3847,72.32,72.02,815.0,7.29,8.15
01:35:40,4.8630,1.4981,11.6444,2.3930,72.57,72.27,816.0,7.29,8.16
01:36:00,4.8630,1.4975,11.6849,2.4014,72.82,72.52,814.0,7.28,8.14
01:36:20,4.8630,1.4990,11.7254,2.4097,73.08,72.78,818.0,7.29,8.18
01:36:40,4.8630,1.4982,11.7659,2.4180,73.33,73.03,818.0,7.29,8.18
01:37:00,4.8620,1.5001,11.8064,2.4264,73.58,73.28,819.0,7.29,8.19
01:37:20,4.8620,1.4987,11.8470,2.4347,73.83,73.53,822.0,7.29,8.22
01:37:40,4.8630,1.4991,11.8874,2.4430,74.09,73.78,819.0,7.29,8.19
01:38:00,4.8630,1.4963,11.9279,2.4513,74.34,74.03,821.0,7.28,8.21
01:38:20,4.8630,1.4975,11.9683,2.4596,74.59,74.28,821.0,7.28,8.21
01:38:40,4.8630,1.4986,12.0088,2.4680,74.84,74.54,817.0,7.29,8.17
01:39:00,4.8630,1.4996,12.0493,2.4763,75.09,74.79,819.0,7.29,8.19
01:39:20,4.8630,1.4970,12.0898,2.4846,75.35,75.04,817.0,7.28,8.17
01:39:40,4.8630,1.4971,12.1303,2.4929,75.60,75.29,811.0,7.28,8.11
01:40:00,4.8630,1.4987,12.1707,2.5013,75.85,75.54,811.0,7.29,8.11
01:40:20,4.8630,1.4961,12.2112,2.5096,76.10,75.79,811.0,7.28,8.11
01:40:40,4.8640,1.4959,12.2516,2.5179,76.36,76.04,814.0,7.28,8.14
01:41:00,4.8630,1.4998,12.2921,2.5262,76.61,76.30,815.0,7.29,8.15
01:41:20,4.8640,1.4968,12.3326,2.5345,76.86,76.55,814.0,7.28,8.14
01:41:40,4.8640,1.4983,12.3731,2.5429,77.11,76.80,815.0,7.29,8.15
01:42:00,4.8640,1.4980,12.4136,2.5512,77.36,77.05,813.0,7.29,8.13
01:42:20,4.8640,1.4985,12.4541,2.5595,77.62,77.30,815.0,7.29,8.15
01:42:40,4.8630,1.4967,12.4945,2.5678,77.87,77.55,812.0,7.28,8.12
01:43:00,4.8640,1.4957,12.5349,2.5762,78.12,77.80,809.0,7.28,8.09
01:43:20,4.8630,1.4995,12.5754,2.5845,78.37,78.05,808.0,7.29,8.08
01:43:40,4.8640,1.4946,12.6159,2.5928,78.63,78.31,804.0,7.27,8.04
01:44:00,4.8630,1.4963,12.6563,2.6011,78.88,78.56,803.0,7.28,8.03
01:44:20,4.8630,1.4994,12.6968,2.6094,79.13,78.81,804.0,7.29,8.04
01:44:40,4.8640,1.4985,12.7373,2.6178,79.38,79.06,802.0,7.29,8.02
01:45:00,4.8640,1.4957,12.7777,2.6261,79.63,79.31,806.0,7.28,8.06
01:45:20,4.8640,1.4958,12.8182,2.6344,79.89,79.56,805.0,7.28,8.05
01:45:40,4.8640,1.4991,12.8587,2.6427,80.14,79.81,806.0,7.29,8.06
01:46:00,4.8650,1.4961,12.8992,2.6510,80.39,80.07,808.0,7.28,8.08
01:46:20,4.8640,1.4961,12.9396,2.6594,80.64,80.32,804.0,7.28,8.04
01:46:40,4.8640,1.4999,12.9802,2.6677,80.90,80.57,803.0,7.3,8.03
01:47:00,4.8650,1.4988,13.0206,2.6760,81.15,80.82,799.0,7.29,7.99
01:47:20,4.8640,1.5003,13.0612,2.6843,81.40,81.07,798.0,7.3,7.98
01:47:40,4.8640,1.4965,13.1017,2.6927,81.65,81.32,799.0,7.28,7.99
01:48:00,4.8640,1.4970,13.1421,2.7010,81.91,81.57,800.0,7.28,8.0
01:48:20,4.8640,1.4975,13.1826,2.7093,82.16,81.83,803.0,7.28,8.03
01:48:40,4.8640,1.4973,13.2231,2.7176,82.41,82.08,803.0,7.28,8.03
01:49:00,4.8650,1.4981,13.2636,2.7260,82.66,82.33,798.0,7.29,7.98
01:49:20,4.8640,1.5003,13.3041,2.7343,82.91,82.58,799.0,7.3,7.99
01:49:40,4.8640,1.4966,13.3445,2.7426,83.17,82.83,798.0,7.28,7.98
01:50:00,4.8640,1.4987,13.3851,2.7509,83.42,83.08,793.0,7.29,7.93
01:50:20,4.8640,1.4958,13.4255,2.7593,83.67,83.33,797.0,7.28,7.97
01:50:40,4.8630,1.4978,13.4660,2.7676,83.92,83.58,796.0,7.28,7.96
01:51:00,4.8630,1.4990,13.5065,2.7759,84.18,83.84,795.0,7.29,7.95
01:51:20,4.8640,1.4992,13.5470,2.7842,84.43,84.09,792.0,7.29,7.92
01:51:40,4.8640,1.4975,13.5875,2.7925,84.68,84.34,793.0,7.28,7.93
01:52:00,4.8640,1.4987,13.6279,2.8009,84.93,84.59,795.0,7.29,7.95
01:52:20,4.8640,1.4985,13.6684,2.8092,85.19,84.84,791.0,7.29,7.91
01:52:40,4.8640,1.4977,13.7089,2.8175,85.44,85.09,788.0,7.28,7.88
01:53:00,4.8640,1.4963,13.7493,2.8258,85.69,85.34,794.0,7.28,7.94
01:53:20,4.8640,1.4981,13.7898,2.8342,85.94,85.60,792.0,7.29,7.92
01:53:40,4.8640,1.4970,13.8303,2.8425,86.19,85.85,795.0,7.28,7.95
01:54:00,4.8640,1.4977,13.8707,2.8508,86.45,86.10,790.0,7.28,7.9
01:54:20,4.8630,1.4976,13.9112,2.8591,86.70,86.35,791.0,7.28,7.91
01:54:40,4.8630,1.4982,13.9516,2.8674,86.95,86.60,792.0,7.29,7.92
01:55:00,4.8630,1.4988,13.9921,2.8757,87.20,86.85,789.0,7.29,7.89
01:55:20,4.8630,1.4977,14.0326,2.8841,87.45,87.10,793.0,7.28,7.93
01:55:40,4.8640,1.4974,14.0730,2.8924,87.71,87.35,788.0,7.28,7.88
01:56:00,4.8640,1.4988,14.1135,2.9007,87.96,87.61,794.0,7.29,7.94
01:56:20,4.8640,1.4983,14.1540,2.9090,88.21,87.86,797.0,7.29,7.97
01:56:40,4.8640,1.4977,14.1945,2.9173,88.46,88.11,799.0,7.28,7.99
01:57:00,4.8640,1.4975,14.2349,2.9257,88.72,88.36,801.0,7.28,8.01
01:57:20,4.8640,1.4990,14.2754,2.9340,88.97,88.61,805.0,7.29,8.05
01:57:40,4.8640,1.4991,14.3159,2.9423,89.22,88.86,803.0,7.29,8.03
01:58:00,4.8640,1.4977,14.3564,2.9506,89.47,89.11,804.0,7.28,8.04
01:58:20,4.8640,1.4982,14.3969,2.9590,89.73,89.36,801.0,7.29,8.01
01:58:40,4.8640,1.4970,14.4373,2.9673,89.98,89.62,801.0,7.28,8.01
01:59:00,4.8640,1.4982,14.4778,2.9756,90.23,89.87,797.0,7.29,7.97
01:59:20,4.8640,1.4972,14.5183,2.9839,90.48,90.12,796.0,7.28,7.96
01:59:40,4.8640,1.4987,14.5588,2.9922,90.73,90.37,793.0,7.29,7.93
02:00:00,4.8650,1.4985,14.5993,3.0006,90.99,90.62,796.0,7.29,7.96
02:00:20,4.8640,1.4961,14.6397,3.0089,91.24,90.87,795.0,7.28,7.95
02:00:40,4.8650,1.4977,14.6802,3.0172,91.49,91.12,794.0,7.29,7.94
02:01:00,4.8650,1.4963,14.7207,3.0255,91.74,91.38,793.0,7.28,7.93
02:01:20,4.8640,1.4971,14.7611,3.0339,92.00,91.63,792.0,7.28,7.92
02:01:40,4.8640,1.4967,14.8016,3.0422,92.25,91.88,790.0,7.28,7.9
02:02:00,4.8640,1.4974,14.8421,3.0505,92.50,92.13,787.0,7.28,7.87
02:02:20,4.8650,1.4984,14.8826,3.0588,92.75,92.38,784.0,7.29,7.84
02:02:40,4.8650,1.4968,14.9230,3.0671,93.00,92.63,783.0,7.28,7.83
02:03:00,4.8650,1.4979,14.9635,3.0755,93.26,92.88,780.0,7.29,7.8
02:03:20,4.8640,1.4978,15.0040,3.0838,93.51,93.13,773.0,7.29,7.73
02:03:40,4.8640,1.4976,15.0444,3.0921,93.76,93.39,775.0,7.28,7.75
02:04:00,4.8640,1.4974,15.0849,3.1004,94.01,93.64,775.0,7.28,7.75
02:04:20,4.8640,1.4977,15.1254,3.1087,94.27,93.89,776.0,7.28,7.76
02:04:40,4.8640,1.4978,15.1659,3.1171,94.52,94.14,773.0,7.29,7.73
02:05:00,4.8640,1.4967,15.2063,3.1254,94.77,94.39,775.0,7.28,7.75
02:05:20,4.8640,1.4979,15.2468,3.1337,95.02,94.64,780.0,7.29,7.8
02:05:40,4.8640,1.4962,15.2872,3.1420,95.27,94.89,782.0,7.28,7.82
02:06:00,4.8640,1.4982,15.3277,3.1503,95.53,95.14,785.0,7.29,7.85
02:06:20,4.8640,1.4973,15.3682,3.1587,95.78,95.40,782.0,7.28,7.82
02:06:40,4.8640,1.4972,15.4086,3.1670,96.03,95.65,782.0,7.28,7.82
02:07:00,4.8630,1.4978,15.4491,3.1753,96.28,95.90,785.0,7.28,7.85
02:07:20,4.8630,1.4983,15.4896,3.1836,96.54,96.15,783.0,7.29,7.83
02:07:40,4.8630,1.4978,15.5301,3.1919,96.79,96.40,785.0,7.28,7.85
02:08:00,4.8640,1.4973,15.5705,3.2003,97.04,96.65,789.0,7.28,7.89
02:08:20,4.8630,1.4974,15.6110,3.2086,97.29,96.90,791.0,7.28,7.91
02:08:40,4.8630,1.4978,15.6514,3.2169,97.54,97.15,793.0,7.28,7.93
02:09:00,4.8630,1.4977,15.6919,3.2252,97.80,97.41,795.0,7.28,7.95
02:09:20,4.8630,1.4978,15.7324,3.2335,98.05,97.66,803.0,7.28,8.03
02:09:40,4.8630,1.4978,15.7728,3.2419,98.30,97.91,815.0,7.28,8.15
02:10:00,5.1450,0.1232,15.7948,3.2464,98.44,98.04,305.0,0.63,3.05
02:10:20,2.4400,0.1998,15.7977,3.2475,98.46,98.08,178.7,0.49,1.787
02:10:40,2.3860,0.2463,15.8006,3.2488,98.47,98.12,229.0,0.59,2.29
02:11:00,2.7380,0.4781,15.8064,3.2510,98.51,98.18,218.0,1.31,2.18
02:11:20,2.8820,0.1873,15.8079,3.2515,98.52,98.20,132.6,0.54,1.326
02:11:40,2.4000,0.1597,15.8101,3.2524,98.53,98.23,114.6,0.38,1.146
02:12:00,2.3000,0.1550,15.8122,3.2533,98.55,98.25,114.8,0.36,1.148
02:12:20,2.2770,0.1458,15.8141,3.2541,98.56,98.28,102.8,0.33,1.028
02:12:40,4.6400,0.0297,15.8154,3.2546,98.57,98.29,96.5,0.14,0.965
02:13:00,2.4550,0.1592,15.8176,3.2555,98.58,98.32,96.9,0.39,0.969
02:13:20,2.3280,0.1641,15.8196,3.2563,98.59,98.35,96.8,0.38,0.968
02:13:40,2.2880,0.1449,15.8214,3.2571,98.60,98.37,98.4,0.33,0.984
02:14:00,2.2830,0.1444,15.8233,3.2579,98.61,98.39,98.1,0.33,0.981
02:14:20,5.2290,0.0090,15.8243,3.2583,98.62,98.41,101.9,0.05,1.019
02:14:40,2.5090,0.1603,15.8267,3.2593,98.64,98.43,108.4,0.4,1.084
02:15:00,2.3700,0.1782,15.8290,3.2602,98.65,98.46,114.2,0.42,1.142
02:15:20,2.3130,0.1622,15.8313,3.2612,98.66,98.49,125.3,0.38,1.253
02:15:40,2.3080,0.1799,15.8335,3.2622,98.68,98.52,146.1,0.42,1.461
02:16:00,4.9290,1.1176,15.8502,3.2659,98.78,98.63,661.0,5.51,6.61
02:16:20,4.8600,1.4624,15.8700,3.2700,98.91,98.76,833.0,7.11,8.33
02:16:40,2.3880,0.2242,15.8716,3.2706,98.92,98.78,263.0,0.54,2.63
02:17:00,2.4130,0.2245,15.8744,3.2718,98.93,98.81,167.1,0.54,1.671
02:17:20,2.3900,0.1894,15.8781,3.2732,98.96,98.86,154.0,0.45,1.54
02:17:40,2.4470,0.1780,15.8805,3.2742,98.97,98.89,124.3,0.44,1.243
02:18:00,2.5710,0.1705,15.8829,3.2752,98.99,98.91,111.3,0.44,1.113
02:18:20,3.1470,0.1656,15.8857,3.2761,99.00,98.94,107.2,0.52,1.072
02:18:40,4.6110,0.0086,15.8876,3.2766,99.02,98.96,107.6,0.04,1.076
02:19:00,2.4970,0.1649,15.8900,3.2775,99.03,98.98,112.7,0.41,1.127
02:19:20,2.4000,0.1941,15.8925,3.2785,99.05,99.02,135.4,0.47,1.354
02:19:40,2.5820,0.3543,15.8971,3.2799,99.08,99.06,441.0,0.91,4.41
02:20:00,4.8540,1.4967,15.9174,3.2841,99.20,99.18,589.0,7.26,5.89
02:20:20,4.8560,1.4990,15.9579,3.2924,99.45,99.44,723.0,7.28,7.23
02:20:40,2.6260,0.3760,15.9808,3.2976,99.60,99.59,595.0,0.99,5.95
02:21:00,4.6210,0.0090,15.9849,3.2986,99.62,99.62,280.0,0.04,2.8
02:21:20,4.8560,1.4990,16.0253,3.3069,99.87,99.87,791.0,7.28,7.91
02:21:40,4.8550,1.4985,16.0657,3.3153,100.13,100.13,798.0,7.28,7.98