File: output/10/gznomad7-3.csv
Time,Voltage(V),Current(A),Energy(Wh),Capacity(Ah),Energy Proportion(%),Capacity Proportion(%),Irradiance(W/m2),Power(W),Sunlight Level
00:00:00,5.0960,0.0984,0.0014,0.0003,0.03,0.03,868.0,0.5,8.68
00:00:10,4.6820,0.0459,0.0020,0.0004,0.04,0.04,868.0,0.21,8.68
00:00:20,5.1250,0.0093,0.0021,0.0004,0.05,0.04,866.0,0.05,8.66
00:00:30,5.1220,0.0091,0.0023,0.0005,0.05,0.05,867.0,0.05,8.67
00:00:40,4.9940,0.0091,0.0024,0.0005,0.05,0.05,867.0,0.05,8.67
00:00:50,4.4350,0.2588,0.0056,0.0012,0.12,0.13,866.0,1.15,8.66
00:01:00,5.0430,0.3856,0.0110,0.0023,0.23,0.24,863.0,1.94,8.63
00:01:10,5.0550,0.3334,0.0156,0.0032,0.33,0.34,862.0,1.69,8.62
00:01:20,5.0030,0.5485,0.0233,0.0047,0.49,0.50,861.0,2.74,8.61
00:01:30,5.0110,0.5120,0.0304,0.0061,0.65,0.65,859.0,2.57,8.59
00:01:40,5.0110,0.5122,0.0375,0.0076,0.80,0.80,856.0,2.57,8.56
00:01:50,5.0110,0.5121,0.0447,0.0090,0.95,0.95,859.0,2.57,8.59
00:02:00,5.0110,0.5122,0.0518,0.0104,1.10,1.10,857.0,2.57,8.57
00:02:10,5.0110,0.5123,0.0589,0.0118,1.25,1.25,857.0,2.57,8.57
00:02:20,5.0100,0.5122,0.0660,0.0133,1.40,1.39,852.0,2.57,8.52
00:02:30,5.0100,0.5124,0.0732,0.0147,1.56,1.54,855.0,2.57,8.55
00:02:40,5.0110,0.5123,0.0803,0.0161,1.71,1.69,853.0,2.57,8.53
00:02:50,5.0100,0.5119,0.0874,0.0175,1.86,1.84,850.0,2.56,8.5
00:03:00,5.0100,0.5120,0.0946,0.0189,2.01,1.99,852.0,2.57,8.52
00:03:10,5.0100,0.5124,0.1017,0.0204,2.16,2.14,853.0,2.57,8.53
00:03:20,5.0110,0.5124,0.1088,0.0218,2.31,2.29,850.0,2.57,8.5
00:03:30,5.0110,0.5122,0.1159,0.0232,2.47,2.44,851.0,2.57,8.51
00:03:40,5.0110,0.5123,0.1231,0.0246,2.62,2.59,854.0,2.57,8.54
00:03:50,5.0100,0.5122,0.1302,0.0261,2.77,2.74,854.0,2.57,8.54
00:04:00,5.0100,0.5120,0.1373,0.0275,2.92,2.89,852.0,2.57,8.52
00:04:10,5.0100,0.5122,0.1445,0.0289,3.07,3.04,855.0,2.57,8.55
00:04:20,5.0100,0.5123,0.1516,0.0303,3.22,3.19,854.0,2.57,8.54
00:04:30,5.0100,0.5121,0.1587,0.0317,3.38,3.34,857.0,2.57,8.57
00:04:40,5.0100,0.5123,0.1658,0.0332,3.53,3.49,858.0,2.57,8.58
00:04:50,5.0100,0.5122,0.1730,0.0346,3.68,3.64,853.0,2.57,8.53
00:05:00,5.0090,0.5122,0.1801,0.0360,3.83,3.79,854.0,2.57,8.54
00:05:10,5.0090,0.5121,0.1872,0.0374,3.98,3.94,855.0,2.57,8.55
00:05:20,5.0090,0.5121,0.1944,0.0389,4.13,4.09,855.0,2.57,8.55
00:05:30,5.0090,0.5123,0.2015,0.0403,4.29,4.24,855.0,2.57,8.55
00:05:40,5.0090,0.5124,0.2086,0.0417,4.44,4.39,852.0,2.57,8.52
00:05:50,5.0100,0.5123,0.2157,0.0431,4.59,4.54,849.0,2.57,8.49
00:06:00,5.0100,0.5124,0.2229,0.0446,4.74,4.69,852.0,2.57,8.52
00:06:10,5.0090,0.5123,0.2300,0.0460,4.89,4.84,850.0,2.57,8.5
00:06:20,5.0090,0.5122,0.2371,0.0474,5.04,4.99,853.0,2.57,8.53
00:06:30,5.0090,0.5122,0.2443,0.0488,5.19,5.14,851.0,2.57,8.51
00:06:40,5.0090,0.5124,0.2514,0.0502,5.35,5.29,847.0,2.57,8.47
00:06:50,5.0090,0.5124,0.2585,0.0517,5.50,5.44,844.0,2.57,8.44
00:07:00,5.0080,0.5124,0.2656,0.0531,5.65,5.59,847.0,2.57,8.47
00:07:10,5.0090,0.5124,0.2728,0.0545,5.80,5.74,845.0,2.57,8.45
00:07:20,5.0090,0.5124,0.2799,0.0559,5.95,5.89,845.0,2.57,8.45
00:07:30,5.0100,0.5122,0.2870,0.0574,6.10,6.04,842.0,2.57,8.42
00:07:40,5.0090,0.5122,0.2942,0.0588,6.26,6.19,841.0,2.57,8.41
00:07:50,5.0090,0.5121,0.3013,0.0602,6.41,6.34,839.0,2.57,8.39
00:08:00,5.0090,0.5124,0.3084,0.0616,6.56,6.49,837.0,2.57,8.37
00:08:10,5.0090,0.5124,0.3155,0.0631,6.71,6.64,829.0,2.57,8.29
00:08:20,5.0090,0.5124,0.3227,0.0645,6.86,6.79,830.0,2.57,8.3
00:08:30,5.0090,0.5124,0.3298,0.0659,7.01,6.94,833.0,2.57,8.33
00:08:40,5.0090,0.5121,0.3369,0.0673,7.17,7.09,832.0,2.57,8.32
00:08:50,5.0090,0.5121,0.3440,0.0687,7.32,7.24,832.0,2.57,8.32
00:09:00,5.0090,0.5125,0.3512,0.0702,7.47,7.39,835.0,2.57,8.35
00:09:10,5.0090,0.5122,0.3583,0.0716,7.62,7.53,835.0,2.57,8.35
00:09:20,5.0090,0.5121,0.3654,0.0730,7.77,7.68,830.0,2.57,8.3
00:09:30,5.0090,0.5123,0.3726,0.0744,7.92,7.83,827.0,2.57,8.27
00:09:40,5.0080,0.5122,0.3797,0.0759,8.08,7.98,824.0,2.57,8.24
00:09:50,5.0090,0.5122,0.3868,0.0773,8.23,8.13,825.0,2.57,8.25
00:10:00,5.0090,0.5124,0.3939,0.0787,8.38,8.28,826.0,2.57,8.26
00:10:10,5.0090,0.5124,0.4011,0.0801,8.53,8.43,827.0,2.57,8.27
00:10:20,5.0080,0.5119,0.4082,0.0816,8.68,8.58,827.0,2.56,8.27
00:10:30,5.0080,0.5121,0.4153,0.0830,8.83,8.73,826.0,2.56,8.26
00:10:40,5.0080,0.5122,0.4224,0.0844,8.98,8.88,825.0,2.57,8.25
00:10:50,5.0080,0.5122,0.4296,0.0858,9.14,9.03,828.0,2.57,8.28
00:11:00,5.0080,0.5125,0.4367,0.0872,9.29,9.18,828.0,2.57,8.28
00:11:10,5.0080,0.5123,0.4438,0.0887,9.44,9.33,830.0,2.57,8.3
00:11:20,5.0080,0.5122,0.4509,0.0901,9.59,9.48,832.0,2.57,8.32
00:11:30,5.0090,0.5124,0.4581,0.0915,9.74,9.63,833.0,2.57,8.33
00:11:40,5.0090,0.5123,0.4652,0.0929,9.89,9.78,839.0,2.57,8.39
00:11:50,5.0080,0.5118,0.4723,0.0944,10.05,9.93,841.0,2.56,8.41
00:12:00,5.0080,0.5121,0.4794,0.0958,10.20,10.08,839.0,2.56,8.39
00:12:10,5.0080,0.5121,0.4866,0.0972,10.35,10.23,838.0,2.56,8.38
00:12:20,5.0080,0.5122,0.4937,0.0986,10.50,10.38,834.0,2.57,8.34
00:12:30,5.0080,0.5124,0.5008,0.1001,10.65,10.53,837.0,2.57,8.37
00:12:40,5.0080,0.5123,0.5080,0.1015,10.80,10.68,840.0,2.57,8.4
00:12:50,5.0080,0.5123,0.5151,0.1029,10.96,10.83,842.0,2.57,8.42
00:13:00,5.0090,0.5124,0.5222,0.1043,11.11,10.98,848.0,2.57,8.48
00:13:10,5.0090,0.5123,0.5293,0.1057,11.26,11.13,847.0,2.57,8.47
00:13:20,5.0080,0.5123,0.5365,0.1072,11.41,11.28,854.0,2.57,8.54
00:13:30,5.0080,0.5120,0.5436,0.1086,11.56,11.43,856.0,2.56,8.56
00:13:40,5.0080,0.5121,0.5507,0.1100,11.71,11.58,857.0,2.56,8.57
00:13:50,5.0080,0.5123,0.5578,0.1114,11.86,11.73,859.0,2.57,8.59
00:14:00,5.0080,0.5122,0.5650,0.1129,12.02,11.88,858.0,2.57,8.58
00:14:10,5.0080,0.5121,0.5721,0.1143,12.17,12.03,863.0,2.56,8.63
00:14:20,5.0070,0.5124,0.5792,0.1157,12.32,12.18,863.0,2.57,8.63
00:14:30,5.0070,0.5121,0.5863,0.1171,12.47,12.33,868.0,2.56,8.68
00:14:40,5.0070,0.5122,0.5935,0.1185,12.62,12.48,870.0,2.56,8.7
00:14:50,5.0070,0.5125,0.6006,0.1200,12.77,12.63,869.0,2.57,8.69
00:15:00,5.0070,0.5126,0.6077,0.1214,12.93,12.78,870.0,2.57,8.7
00:15:10,5.0080,0.5122,0.6148,0.1228,13.08,12.93,869.0,2.57,8.69
00:15:20,5.0080,0.5124,0.6220,0.1242,13.23,13.08,869.0,2.57,8.69
00:15:30,5.0080,0.5122,0.6291,0.1257,13.38,13.23,869.0,2.57,8.69
00:15:40,5.0080,0.5122,0.6362,0.1271,13.53,13.38,870.0,2.57,8.7
00:15:50,5.0080,0.5120,0.6433,0.1285,13.68,13.52,869.0,2.56,8.69
00:16:00,5.0080,0.5122,0.6505,0.1299,13.83,13.67,870.0,2.57,8.7
00:16:10,5.0080,0.5120,0.6576,0.1314,13.99,13.82,872.0,2.56,8.72
00:16:20,5.0080,0.5125,0.6647,0.1328,14.14,13.97,871.0,2.57,8.71
00:16:30,5.0080,0.5121,0.6718,0.1342,14.29,14.12,873.0,2.56,8.73
00:16:40,5.0080,0.5125,0.6790,0.1356,14.44,14.27,875.0,2.57,8.75
00:16:50,5.0080,0.5128,0.6861,0.1370,14.59,14.42,875.0,2.57,8.75
00:17:00,5.0080,0.5122,0.6932,0.1385,14.74,14.57,875.0,2.57,8.75
00:17:10,5.0080,0.5123,0.7004,0.1399,14.90,14.72,875.0,2.57,8.75
00:17:20,5.0080,0.5122,0.7075,0.1413,15.05,14.87,872.0,2.57,8.72
00:17:30,5.0070,0.5122,0.7146,0.1427,15.20,15.02,872.0,2.56,8.72
00:17:40,5.0080,0.5123,0.7217,0.1442,15.35,15.17,868.0,2.57,8.68
00:17:50,5.0080,0.5117,0.7289,0.1456,15.50,15.32,867.0,2.56,8.67
00:18:00,5.0070,0.5122,0.7360,0.1470,15.65,15.47,864.0,2.56,8.64
00:18:10,5.0070,0.5122,0.7431,0.1484,15.80,15.62,862.0,2.56,8.62
00:18:20,5.0070,0.5122,0.7502,0.1499,15.96,15.77,861.0,2.56,8.61
00:18:30,5.0070,0.5120,0.7573,0.1513,16.11,15.92,861.0,2.56,8.61
00:18:40,5.0070,0.5122,0.7645,0.1527,16.26,16.07,863.0,2.56,8.63
00:18:50,5.0070,0.5121,0.7716,0.1541,16.41,16.22,864.0,2.56,8.64
00:19:00,5.0070,0.5122,0.7787,0.1555,16.56,16.37,862.0,2.56,8.62
00:19:10,5.0070,0.5121,0.7858,0.1570,16.71,16.52,860.0,2.56,8.6
00:19:20,5.0070,0.5123,0.7930,0.1584,16.87,16.67,858.0,2.57,8.58
00:19:30,5.0070,0.5125,0.8001,0.1598,17.02,16.82,853.0,2.57,8.53
00:19:40,5.0070,0.5120,0.8072,0.1612,17.17,16.97,849.0,2.56,8.49
00:19:50,5.0070,0.5122,0.8143,0.1627,17.32,17.12,846.0,2.56,8.46
00:20:00,5.0070,0.5123,0.8215,0.1641,17.47,17.27,843.0,2.57,8.43
00:20:10,5.0070,0.5123,0.8286,0.1655,17.62,17.42,836.0,2.57,8.36
00:20:20,5.0070,0.5121,0.8357,0.1669,17.77,17.57,837.0,2.56,8.37
00:20:30,5.0070,0.5121,0.8428,0.1683,17.93,17.72,834.0,2.56,8.34
00:20:40,5.0070,0.5123,0.8500,0.1698,18.08,17.87,828.0,2.57,8.28
00:20:50,5.0070,0.5123,0.8571,0.1712,18.23,18.02,826.0,2.57,8.26
00:21:00,5.0070,0.5123,0.8642,0.1726,18.38,18.17,819.0,2.57,8.19
00:21:10,5.0080,0.5123,0.8713,0.1740,18.53,18.32,816.0,2.57,8.16
00:21:20,5.0080,0.5122,0.8785,0.1755,18.68,18.47,815.0,2.57,8.15
00:21:30,5.0080,0.5120,0.8856,0.1769,18.84,18.62,817.0,2.56,8.17
00:21:40,5.0080,0.5119,0.8927,0.1783,18.99,18.77,811.0,2.56,8.11
00:21:50,5.0080,0.5122,0.8998,0.1797,19.14,18.92,808.0,2.57,8.08
00:22:00,5.0080,0.5123,0.9070,0.1812,19.29,19.07,805.0,2.57,8.05
00:22:10,5.0080,0.5122,0.9141,0.1826,19.44,19.21,803.0,2.57,8.03
00:22:20,5.0070,0.5123,0.9212,0.1840,19.59,19.36,804.0,2.57,8.04
00:22:30,5.0090,0.5123,0.9283,0.1854,19.74,19.51,800.0,2.57,8.0
00:22:40,5.0090,0.5122,0.9355,0.1868,19.90,19.66,801.0,2.57,8.01
00:22:50,5.0080,0.5122,0.9426,0.1883,20.05,19.81,799.0,2.57,7.99
00:23:00,5.0090,0.5120,0.9497,0.1897,20.20,19.96,799.0,2.56,7.99
00:23:10,5.0090,0.5122,0.9568,0.1911,20.35,20.11,799.0,2.57,7.99
00:23:20,5.0090,0.5122,0.9640,0.1925,20.50,20.26,802.0,2.57,8.02
00:23:30,5.0090,0.5124,0.9711,0.1940,20.65,20.41,804.0,2.57,8.04
00:23:40,5.0090,0.5122,0.9782,0.1954,20.81,20.56,803.0,2.57,8.03
00:23:50,5.0090,0.5121,0.9853,0.1968,20.96,20.71,800.0,2.57,8.0
00:24:00,5.0090,0.5120,0.9925,0.1982,21.11,20.86,798.0,2.56,7.98
00:24:10,5.0090,0.5121,0.9996,0.1996,21.26,21.01,790.0,2.57,7.9
00:24:20,0.5560,0.0000,0.9996,0.1996,21.26,21.01,729.0,0.0,7.29
00:24:30,5.0090,0.5120,1.0067,0.2011,21.41,21.16,679.0,2.56,6.79
00:24:40,5.0100,0.5122,1.0138,0.2025,21.56,21.31,750.0,2.57,7.5
00:24:50,0.3330,0.0000,1.0138,0.2025,21.56,21.31,749.0,0.0,7.49
00:25:00,4.9420,0.3995,1.0193,0.2036,21.68,21.43,678.0,1.97,6.78
00:25:10,5.0090,0.5121,1.0265,0.2050,21.83,21.58,785.0,2.57,7.85
00:25:20,0.0000,0.0000,1.0265,0.2050,21.83,21.58,696.0,0.0,6.96
00:25:30,5.0100,0.5120,1.0336,0.2064,21.98,21.73,784.0,2.57,7.84
00:25:40,5.0090,0.5120,1.0407,0.2079,22.13,21.88,819.0,2.56,8.19
00:25:50,5.0090,0.5121,1.0478,0.2093,22.29,22.03,822.0,2.57,8.22
00:26:00,5.0090,0.5120,1.0550,0.2107,22.44,22.18,817.0,2.56,8.17
00:26:10,5.0090,0.5122,1.0621,0.2121,22.59,22.33,815.0,2.57,8.15
00:26:20,5.0090,0.5123,1.0692,0.2136,22.74,22.48,812.0,2.57,8.12
00:26:30,5.0090,0.5121,1.0763,0.2150,22.89,22.63,811.0,2.57,8.11
00:26:40,5.0090,0.5123,1.0835,0.2164,23.04,22.78,810.0,2.57,8.1
00:26:50,5.0090,0.5122,1.0906,0.2178,23.20,22.93,807.0,2.57,8.07
00:27:00,5.0080,0.5123,1.0977,0.2193,23.35,23.07,805.0,2.57,8.05
00:27:10,5.0080,0.5122,1.1048,0.2207,23.50,23.22,805.0,2.57,8.05
00:27:20,5.0080,0.5120,1.1120,0.2221,23.65,23.37,800.0,2.56,8.0
00:27:30,5.0080,0.5122,1.1191,0.2235,23.80,23.52,797.0,2.57,7.97
00:27:40,5.0080,0.5122,1.1262,0.2249,23.95,23.67,791.0,2.57,7.91
00:27:50,5.0080,0.5123,1.1333,0.2264,24.10,23.82,792.0,2.57,7.92
00:28:00,5.0080,0.5123,1.1405,0.2278,24.26,23.97,791.0,2.57,7.91
00:28:10,5.0080,0.5124,1.1476,0.2292,24.41,24.12,792.0,2.57,7.92
00:28:20,5.0080,0.5121,1.1547,0.2306,24.56,24.27,795.0,2.56,7.95
00:28:30,5.0080,0.5125,1.1618,0.2321,24.71,24.42,793.0,2.57,7.93
00:28:40,5.0090,0.5122,1.1690,0.2335,24.86,24.57,796.0,2.57,7.96
00:28:50,5.0090,0.5122,1.1761,0.2349,25.01,24.72,793.0,2.57,7.93
00:29:00,5.0090,0.5121,1.1832,0.2363,25.17,24.87,792.0,2.57,7.92
00:29:10,5.0090,0.5125,1.1904,0.2377,25.32,25.02,793.0,2.57,7.93
00:29:20,5.0090,0.5121,1.1975,0.2392,25.47,25.17,796.0,2.57,7.96
00:29:30,5.0090,0.5125,1.2046,0.2406,25.62,25.32,795.0,2.57,7.95
00:29:40,5.0090,0.5126,1.2117,0.2420,25.77,25.47,791.0,2.57,7.91
00:29:50,5.0090,0.5123,1.2189,0.2434,25.92,25.62,792.0,2.57,7.92
00:30:00,5.0090,0.5122,1.2260,0.2449,26.08,25.77,795.0,2.57,7.95
00:30:10,5.0090,0.5123,1.2331,0.2463,26.23,25.92,794.0,2.57,7.94
00:30:20,5.0090,0.5122,1.2403,0.2477,26.38,26.07,792.0,2.57,7.92
00:30:30,5.0090,0.5124,1.2474,0.2491,26.53,26.22,792.0,2.57,7.92
00:30:40,5.0100,0.5125,1.2545,0.2506,26.68,26.37,792.0,2.57,7.92
00:30:50,5.0100,0.5123,1.2616,0.2520,26.83,26.52,796.0,2.57,7.96
00:31:00,5.0100,0.5123,1.2688,0.2534,26.99,26.67,794.0,2.57,7.94
00:31:10,5.0100,0.5121,1.2759,0.2548,27.14,26.82,796.0,2.57,7.96
00:31:20,5.0100,0.5123,1.2830,0.2562,27.29,26.97,798.0,2.57,7.98
00:31:30,5.0100,0.5125,1.2902,0.2577,27.44,27.12,797.0,2.57,7.97
00:31:40,5.0100,0.5124,1.2973,0.2591,27.59,27.27,795.0,2.57,7.95
00:31:50,5.0100,0.5123,1.3044,0.2605,27.74,27.42,797.0,2.57,7.97
00:32:00,5.0100,0.5123,1.3116,0.2619,27.90,27.57,798.0,2.57,7.98
00:32:10,5.0100,0.5122,1.3187,0.2634,28.05,27.72,799.0,2.57,7.99
00:32:20,5.0100,0.5123,1.3258,0.2648,28.20,27.87,799.0,2.57,7.99
00:32:30,5.0100,0.5124,1.3329,0.2662,28.35,28.02,799.0,2.57,7.99
00:32:40,5.0100,0.5122,1.3401,0.2676,28.50,28.17,800.0,2.57,8.0
00:32:50,5.0100,0.5121,1.3472,0.2691,28.65,28.32,800.0,2.57,8.0
00:33:00,5.0100,0.5122,1.3543,0.2705,28.81,28.47,799.0,2.57,7.99
00:33:10,5.0100,0.5124,1.3615,0.2719,28.96,28.62,799.0,2.57,7.99
00:33:20,5.0100,0.5125,1.3686,0.2733,29.11,28.77,800.0,2.57,8.0
00:33:30,5.0100,0.5122,1.3757,0.2747,29.26,28.92,801.0,2.57,8.01
00:33:40,5.0100,0.5123,1.3828,0.2762,29.41,29.07,802.0,2.57,8.02
00:33:50,5.0100,0.5121,1.3900,0.2776,29.56,29.22,801.0,2.57,8.01
00:34:00,5.0100,0.5121,1.3971,0.2790,29.71,29.36,800.0,2.57,8.0
00:34:10,5.0100,0.5124,1.4042,0.2804,29.87,29.51,801.0,2.57,8.01
00:34:20,5.0100,0.5124,1.4114,0.2819,30.02,29.66,805.0,2.57,8.05
00:34:30,5.0100,0.5124,1.4185,0.2833,30.17,29.81,803.0,2.57,8.03
00:34:40,5.0100,0.5123,1.4256,0.2847,30.32,29.96,800.0,2.57,8.0
00:34:50,5.0100,0.5123,1.4327,0.2861,30.47,30.11,800.0,2.57,8.0
00:35:00,5.0100,0.5122,1.4399,0.2876,30.62,30.26,799.0,2.57,7.99
00:35:10,5.0090,0.5122,1.4470,0.2890,30.78,30.41,796.0,2.57,7.96
00:35:20,5.0090,0.5123,1.4541,0.2904,30.93,30.56,802.0,2.57,8.02
00:35:30,5.0090,0.5122,1.4613,0.2918,31.08,30.71,805.0,2.57,8.05
00:35:40,5.0090,0.5122,1.4684,0.2932,31.23,30.86,805.0,2.57,8.05
00:35:50,5.0090,0.5123,1.4755,0.2947,31.38,31.01,805.0,2.57,8.05
00:36:00,5.0090,0.5124,1.4826,0.2961,31.53,31.16,805.0,2.57,8.05
00:36:10,5.0090,0.5122,1.4898,0.2975,31.69,31.31,806.0,2.57,8.06
00:36:20,5.0090,0.5122,1.4969,0.2989,31.84,31.46,805.0,2.57,8.05
00:36:30,5.0090,0.5124,1.5040,0.3004,31.99,31.61,806.0,2.57,8.06
00:36:40,5.0090,0.5122,1.5112,0.3018,32.14,31.76,807.0,2.57,8.07
00:36:50,5.0090,0.5122,1.5183,0.3032,32.29,31.91,809.0,2.57,8.09
00:37:00,5.0090,0.5122,1.5254,0.3046,32.44,32.06,807.0,2.57,8.07
00:37:10,5.0080,0.5124,1.5325,0.3061,32.60,32.21,807.0,2.57,8.07
00:37:20,5.0080,0.5122,1.5397,0.3075,32.75,32.36,811.0,2.57,8.11
00:37:30,5.0080,0.5122,1.5468,0.3089,32.90,32.51,814.0,2.57,8.14
00:37:40,5.0080,0.5123,1.5539,0.3103,33.05,32.66,814.0,2.57,8.14
00:37:50,5.0080,0.5122,1.5610,0.3117,33.20,32.81,814.0,2.57,8.14
00:38:00,5.0080,0.5122,1.5682,0.3132,33.35,32.96,818.0,2.57,8.18
00:38:10,5.0080,0.5124,1.5753,0.3146,33.50,33.11,817.0,2.57,8.17
00:38:20,5.0080,0.5122,1.5824,0.3160,33.66,33.26,818.0,2.57,8.18
00:38:30,5.0080,0.5123,1.5895,0.3174,33.81,33.41,818.0,2.57,8.18
00:38:40,5.0080,0.5122,1.5967,0.3189,33.96,33.56,819.0,2.57,8.19
00:38:50,5.0080,0.5123,1.6038,0.3203,34.11,33.71,822.0,2.57,8.22
00:39:00,5.0070,0.5124,1.6109,0.3217,34.26,33.86,822.0,2.57,8.22
00:39:10,5.0070,0.5125,1.6180,0.3231,34.41,34.01,822.0,2.57,8.22
00:39:20,5.0070,0.5124,1.6252,0.3246,34.57,34.16,820.0,2.57,8.2
00:39:30,5.0070,0.5124,1.6323,0.3260,34.72,34.31,819.0,2.57,8.19
00:39:40,5.0070,0.5123,1.6394,0.3274,34.87,34.46,819.0,2.57,8.19
00:39:50,5.0080,0.5124,1.6466,0.3288,35.02,34.61,820.0,2.57,8.2
00:40:00,5.0080,0.5124,1.6537,0.3302,35.17,34.76,819.0,2.57,8.19
00:40:10,5.0080,0.5124,1.6608,0.3317,35.32,34.91,821.0,2.57,8.21
00:40:20,5.0080,0.5122,1.6679,0.3331,35.48,35.06,818.0,2.57,8.18
00:40:30,5.0080,0.5124,1.6751,0.3345,35.63,35.21,816.0,2.57,8.16
00:40:40,5.0080,0.5125,1.6822,0.3359,35.78,35.36,816.0,2.57,8.16
00:40:50,5.0090,0.5122,1.6893,0.3374,35.93,35.51,814.0,2.57,8.14
00:41:00,5.0080,0.5122,1.6964,0.3388,36.08,35.66,812.0,2.57,8.12
00:41:10,5.0080,0.5124,1.7036,0.3402,36.23,35.80,812.0,2.57,8.12
00:41:20,5.0080,0.5135,1.7107,0.3416,36.39,35.96,810.0,2.57,8.1
00:41:30,5.0080,0.5124,1.7178,0.3431,36.54,36.10,810.0,2.57,8.1
00:41:40,5.0080,0.5123,1.7250,0.3445,36.69,36.25,810.0,2.57,8.1
00:41:50,5.0080,0.5124,1.7321,0.3459,36.84,36.40,809.0,2.57,8.09
00:42:00,5.0080,0.5123,1.7392,0.3473,36.99,36.55,810.0,2.57,8.1
00:42:10,5.0090,0.5124,1.7464,0.3488,37.14,36.70,810.0,2.57,8.1
00:42:20,5.0090,0.5124,1.7535,0.3502,37.29,36.85,813.0,2.57,8.13
00:42:30,5.0090,0.5121,1.7606,0.3516,37.45,37.00,813.0,2.57,8.13
00:42:40,5.0090,0.5122,1.7677,0.3530,37.60,37.15,812.0,2.57,8.12
00:42:50,5.0090,0.5122,1.7749,0.3544,37.75,37.30,810.0,2.57,8.1
00:43:00,5.0090,0.5123,1.7820,0.3559,37.90,37.45,811.0,2.57,8.11
00:43:10,5.0090,0.5123,1.7891,0.3573,38.05,37.60,810.0,2.57,8.1
00:43:20,5.0090,0.5124,1.7963,0.3587,38.20,37.75,808.0,2.57,8.08
00:43:30,5.0090,0.5123,1.8034,0.3601,38.36,37.90,810.0,2.57,8.1
00:43:40,5.0090,0.5121,1.8105,0.3616,38.51,38.05,812.0,2.57,8.12
00:43:50,5.0090,0.5120,1.8176,0.3630,38.66,38.20,813.0,2.56,8.13
00:44:00,5.0080,0.5123,1.8248,0.3644,38.81,38.35,811.0,2.57,8.11
00:44:10,5.0090,0.5124,1.8319,0.3658,38.96,38.50,810.0,2.57,8.1
00:44:20,5.0090,0.5123,1.8390,0.3673,39.11,38.65,809.0,2.57,8.09
00:44:30,5.0090,0.5123,1.8461,0.3687,39.27,38.80,805.0,2.57,8.05
00:44:40,5.0090,0.5121,1.8533,0.3701,39.42,38.95,806.0,2.57,8.06
00:44:50,5.0090,0.5120,1.8604,0.3715,39.57,39.10,800.0,2.56,8.0
00:45:00,5.0090,0.5123,1.8675,0.3729,39.72,39.25,795.0,2.57,7.95
00:45:10,5.0090,0.5122,1.8746,0.3744,39.87,39.40,792.0,2.57,7.92
00:45:20,5.0090,0.5121,1.8818,0.3758,40.02,39.55,799.0,2.57,7.99
00:45:30,5.0080,0.5123,1.8889,0.3772,40.17,39.70,792.0,2.57,7.92
00:45:40,5.0080,0.5124,1.8960,0.3786,40.33,39.85,794.0,2.57,7.94
00:45:50,5.0080,0.5122,1.9031,0.3801,40.48,40.00,793.0,2.57,7.93
00:46:00,5.0090,0.5124,1.9103,0.3815,40.63,40.15,792.0,2.57,7.92
00:46:10,5.0090,0.5124,1.9174,0.3829,40.78,40.30,794.0,2.57,7.94
00:46:20,5.0090,0.5121,1.9245,0.3843,40.93,40.45,793.0,2.57,7.93
00:46:30,5.0080,0.5122,1.9317,0.3857,41.08,40.60,790.0,2.57,7.9
00:46:40,5.0080,0.5124,1.9388,0.3872,41.24,40.75,791.0,2.57,7.91
00:46:50,5.0080,0.5119,1.9459,0.3886,41.39,40.90,789.0,2.56,7.89
00:47:00,5.0080,0.5122,1.9530,0.3900,41.54,41.05,790.0,2.57,7.9
00:47:10,5.0080,0.5123,1.9602,0.3914,41.69,41.20,787.0,2.57,7.87
00:47:20,5.0080,0.5123,1.9673,0.3929,41.84,41.35,786.0,2.57,7.86
00:47:30,5.0080,0.5126,1.9744,0.3943,41.99,41.50,783.0,2.57,7.83
00:47:40,5.0080,0.5123,1.9815,0.3957,42.15,41.65,782.0,2.57,7.82
00:47:50,5.0080,0.5124,1.9887,0.3971,42.30,41.80,782.0,2.57,7.82
00:48:00,5.0080,0.5124,1.9958,0.3986,42.45,41.95,781.0,2.57,7.81
00:48:10,5.0080,0.5124,2.0029,0.4000,42.60,42.10,785.0,2.57,7.85
00:48:20,5.0080,0.5122,2.0101,0.4014,42.75,42.25,783.0,2.57,7.83
00:48:30,5.0090,0.5123,2.0172,0.4028,42.90,42.39,781.0,2.57,7.81
00:48:40,5.0080,0.5129,2.0243,0.4042,43.06,42.54,778.0,2.57,7.78
00:48:50,5.0080,0.5123,2.0314,0.4057,43.21,42.69,781.0,2.57,7.81
00:49:00,5.0080,0.5123,2.0386,0.4071,43.36,42.84,779.0,2.57,7.79
00:49:10,5.0080,0.5123,2.0457,0.4085,43.51,42.99,779.0,2.57,7.79
00:49:20,5.0080,0.5122,2.0528,0.4099,43.66,43.14,779.0,2.57,7.79
00:49:30,5.0080,0.5122,2.0599,0.4114,43.81,43.29,777.0,2.57,7.77
00:49:40,5.0080,0.5124,2.0671,0.4128,43.96,43.44,778.0,2.57,7.78
00:49:50,5.0080,0.5124,2.0742,0.4142,44.12,43.59,777.0,2.57,7.77
00:50:00,5.0080,0.5122,2.0813,0.4156,44.27,43.74,776.0,2.57,7.76
00:50:10,5.0070,0.5123,2.0885,0.4171,44.42,43.89,778.0,2.57,7.78
00:50:20,5.0080,0.5123,2.0956,0.4185,44.57,44.04,776.0,2.57,7.76
00:50:30,5.0080,0.5122,2.1027,0.4199,44.72,44.19,777.0,2.57,7.77
00:50:40,5.0080,0.5121,2.1098,0.4213,44.87,44.34,776.0,2.56,7.76
00:50:50,5.0080,0.5124,2.1170,0.4227,45.03,44.49,777.0,2.57,7.77
00:51:00,5.0080,0.5124,2.1241,0.4242,45.18,44.64,778.0,2.57,7.78
00:51:10,5.0080,0.5123,2.1312,0.4256,45.33,44.79,776.0,2.57,7.76
00:51:20,5.0080,0.5122,2.1383,0.4270,45.48,44.94,776.0,2.57,7.76
00:51:30,5.0080,0.5123,2.1455,0.4284,45.63,45.09,774.0,2.57,7.74
00:51:40,5.0080,0.5121,2.1526,0.4299,45.78,45.24,775.0,2.56,7.75
00:51:50,5.0080,0.5123,2.1597,0.4313,45.93,45.39,774.0,2.57,7.74
00:52:00,5.0080,0.5120,2.1668,0.4327,46.09,45.54,774.0,2.56,7.74
00:52:10,5.0080,0.5121,2.1740,0.4341,46.24,45.69,773.0,2.56,7.73
00:52:20,5.0080,0.5123,2.1811,0.4356,46.39,45.84,773.0,2.57,7.73
00:52:30,5.0070,0.5123,2.1882,0.4370,46.54,45.99,772.0,2.57,7.72
00:52:40,5.0080,0.5122,2.1953,0.4384,46.69,46.14,774.0,2.57,7.74
00:52:50,5.0070,0.5122,2.2025,0.4398,46.84,46.29,770.0,2.56,7.7
00:53:00,5.0070,0.5123,2.2096,0.4412,47.00,46.44,776.0,2.57,7.76
00:53:10,5.0070,0.5122,2.2167,0.4427,47.15,46.59,772.0,2.56,7.72
00:53:20,5.0070,0.5122,2.2238,0.4441,47.30,46.74,771.0,2.56,7.71
00:53:30,5.0070,0.5122,2.2310,0.4455,47.45,46.89,768.0,2.56,7.68
00:53:40,5.0070,0.5123,2.2381,0.4469,47.60,47.04,771.0,2.57,7.71
00:53:50,5.0070,0.5123,2.2452,0.4484,47.75,47.19,769.0,2.57,7.69
00:54:00,5.0070,0.5122,2.2523,0.4498,47.90,47.34,768.0,2.56,7.68
00:54:10,5.0070,0.5119,2.2595,0.4512,48.06,47.49,768.0,2.56,7.68
00:54:20,5.0070,0.5123,2.2666,0.4526,48.21,47.64,766.0,2.57,7.66
00:54:30,5.0070,0.5122,2.2737,0.4541,48.36,47.79,768.0,2.56,7.68
00:54:40,5.0070,0.5123,2.2808,0.4555,48.51,47.94,769.0,2.57,7.69
00:54:50,5.0070,0.5123,2.2880,0.4569,48.66,48.09,770.0,2.57,7.7
00:55:00,5.0070,0.5123,2.2951,0.4583,48.81,48.24,771.0,2.57,7.71
00:55:10,5.0070,0.5122,2.3022,0.4597,48.97,48.39,769.0,2.56,7.69
00:55:20,5.0070,0.5123,2.3093,0.4612,49.12,48.53,770.0,2.57,7.7
00:55:30,5.0060,0.5123,2.3165,0.4626,49.27,48.68,772.0,2.56,7.72
00:55:40,5.0060,0.5121,2.3236,0.4640,49.42,48.83,772.0,2.56,7.72
00:55:50,5.0060,0.5122,2.3307,0.4654,49.57,48.98,770.0,2.56,7.7
00:56:00,5.0060,0.5122,2.3378,0.4669,49.72,49.13,769.0,2.56,7.69
00:56:10,5.0060,0.5121,2.3449,0.4683,49.87,49.28,771.0,2.56,7.71
00:56:20,5.0060,0.5121,2.3521,0.4697,50.03,49.43,768.0,2.56,7.68
00:56:30,5.0060,0.5122,2.3592,0.4711,50.18,49.58,765.0,2.56,7.65
00:56:40,5.0060,0.5120,2.3663,0.4725,50.33,49.73,769.0,2.56,7.69
00:56:50,5.0060,0.5121,2.3734,0.4740,50.48,49.88,771.0,2.56,7.71
00:57:00,5.0060,0.5122,2.3805,0.4754,50.63,50.03,774.0,2.56,7.74
00:57:10,5.0060,0.5120,2.3877,0.4768,50.78,50.18,770.0,2.56,7.7
00:57:20,5.0060,0.5122,2.3948,0.4782,50.93,50.33,771.0,2.56,7.71
00:57:30,5.0060,0.5122,2.4019,0.4797,51.09,50.48,770.0,2.56,7.7
00:57:40,5.0060,0.5122,2.4090,0.4811,51.24,50.63,772.0,2.56,7.72
00:57:50,5.0060,0.5123,2.4162,0.4825,51.39,50.78,772.0,2.56,7.72
00:58:00,5.0060,0.5122,2.4233,0.4839,51.54,50.93,775.0,2.56,7.75
00:58:10,5.0060,0.5123,2.4304,0.4854,51.69,51.08,779.0,2.56,7.79
00:58:20,5.0060,0.5123,2.4375,0.4868,51.84,51.23,778.0,2.56,7.78
00:58:30,5.0060,0.5123,2.4446,0.4882,52.00,51.38,780.0,2.56,7.8
00:58:40,5.0070,0.5124,2.4518,0.4896,52.15,51.53,785.0,2.57,7.85
00:58:50,5.0060,0.5122,2.4589,0.4910,52.30,51.68,778.0,2.56,7.78
00:59:00,5.0070,0.5122,2.4660,0.4925,52.45,51.83,780.0,2.56,7.8
00:59:10,5.0060,0.5124,2.4731,0.4939,52.60,51.98,772.0,2.57,7.72
00:59:20,5.0060,0.5122,2.4803,0.4953,52.75,52.13,775.0,2.56,7.75
00:59:30,5.0070,0.5124,2.4874,0.4967,52.90,52.28,774.0,2.57,7.74
00:59:40,5.0070,0.5121,2.4945,0.4982,53.06,52.43,778.0,2.56,7.78
00:59:50,5.0070,0.5124,2.5016,0.4996,53.21,52.58,782.0,2.57,7.82
01:00:00,5.0070,0.5125,2.5088,0.5010,53.36,52.73,783.0,2.57,7.83
01:00:10,5.0070,0.5124,2.5159,0.5024,53.51,52.88,786.0,2.57,7.86
01:00:20,5.0070,0.5123,2.5230,0.5039,53.66,53.03,782.0,2.57,7.82
01:00:30,5.0070,0.5122,2.5301,0.5053,53.81,53.18,783.0,2.56,7.83
01:00:40,5.0070,0.5123,2.5373,0.5067,53.97,53.33,784.0,2.57,7.84
01:00:50,5.0080,0.5122,2.5444,0.5081,54.12,53.48,782.0,2.57,7.82
01:01:00,5.0080,0.5122,2.5515,0.5095,54.27,53.63,779.0,2.57,7.79
01:01:10,5.0080,0.5123,2.5587,0.5110,54.42,53.78,780.0,2.57,7.8
01:01:20,5.0070,0.5124,2.5658,0.5124,54.57,53.93,782.0,2.57,7.82
01:01:30,5.0070,0.5122,2.5729,0.5138,54.72,54.08,786.0,2.56,7.86
01:01:40,5.0070,0.5122,2.5800,0.5152,54.87,54.23,785.0,2.56,7.85
01:01:50,5.0070,0.5123,2.5872,0.5167,55.03,54.38,785.0,2.57,7.85
01:02:00,5.0070,0.5123,2.5943,0.5181,55.18,54.52,787.0,2.57,7.87
01:02:10,5.0070,0.5123,2.6014,0.5195,55.33,54.67,788.0,2.57,7.88
01:02:20,5.0070,0.5120,2.6085,0.5209,55.48,54.82,790.0,2.56,7.9
01:02:30,5.0070,0.5124,2.6156,0.5223,55.63,54.97,797.0,2.57,7.97
01:02:40,5.1260,0.0091,2.6158,0.5224,55.63,54.98,666.0,0.05,6.66
01:02:50,5.0070,0.5117,2.6229,0.5238,55.79,55.13,793.0,2.56,7.93
01:03:00,5.1260,0.0092,2.6230,0.5238,55.79,55.13,168.0,0.05,1.68
01:03:10,2.3910,0.0647,2.6235,0.5240,55.80,55.15,113.7,0.15,1.137
01:03:20,2.3310,0.0592,2.6238,0.5242,55.81,55.17,109.9,0.14,1.099
01:03:30,2.3100,0.0604,2.6242,0.5243,55.81,55.18,114.2,0.14,1.142
01:03:40,2.6630,0.2382,2.6260,0.5250,55.85,55.25,667.0,0.63,6.67
01:03:50,2.3290,0.0944,2.6266,0.5253,55.87,55.28,222.0,0.22,2.22
01:04:00,2.3330,0.1101,2.6273,0.5256,55.88,55.31,172.7,0.26,1.727
01:04:10,2.3750,0.1882,2.6286,0.5261,55.91,55.37,781.0,0.45,7.81
01:04:20,2.3540,0.1677,2.6297,0.5266,55.93,55.42,785.0,0.39,7.85
01:04:30,2.3530,0.1749,2.6308,0.5270,55.95,55.47,780.0,0.41,7.8
01:04:40,2.3510,0.1716,2.6319,0.5275,55.98,55.52,779.0,0.4,7.79
01:04:50,2.3490,0.1742,2.6331,0.5280,56.00,55.57,782.0,0.41,7.82
01:05:00,2.3490,0.1723,2.6342,0.5285,56.03,55.62,778.0,0.4,7.78
01:05:10,2.3530,0.1865,2.6354,0.5290,56.05,55.67,776.0,0.44,7.76
01:05:20,2.3530,0.1707,2.6365,0.5295,56.08,55.72,781.0,0.4,7.81
01:05:30,2.3500,0.1741,2.6376,0.5300,56.10,55.77,781.0,0.41,7.81
01:05:40,2.3470,0.1718,2.6388,0.5304,56.12,55.82,784.0,0.4,7.84
01:05:50,2.3480,0.1687,2.6399,0.5309,56.15,55.87,772.0,0.4,7.72
01:06:00,2.3140,0.0926,2.6405,0.5312,56.16,55.90,428.0,0.21,4.28
01:06:10,2.2940,0.0553,2.6408,0.5313,56.17,55.92,100.2,0.13,1.002
01:06:20,2.2930,0.0543,2.6412,0.5315,56.17,55.93,89.7,0.12,0.897
01:06:30,2.2930,0.0544,2.6415,0.5316,56.18,55.95,85.8,0.12,0.858
01:06:40,2.2960,0.0550,2.6419,0.5318,56.19,55.96,83.5,0.13,0.835
01:06:50,2.2960,0.0560,2.6422,0.5319,56.20,55.98,82.3,0.13,0.823
01:07:00,2.2960,0.0531,2.6426,0.5321,56.20,56.00,82.5,0.12,0.825
01:07:10,2.6320,0.0675,2.6430,0.5323,56.21,56.02,83.9,0.18,0.839
01:07:20,2.3570,0.0635,2.6435,0.5324,56.22,56.04,86.2,0.15,0.862
01:07:30,2.3160,0.0569,2.6438,0.5326,56.23,56.05,91.0,0.13,0.91
01:07:40,2.3070,0.0609,2.6442,0.5328,56.24,56.07,99.7,0.14,0.997
01:07:50,2.3200,0.0797,2.6447,0.5330,56.25,56.09,139.7,0.18,1.397
01:08:00,2.3090,0.0664,2.6452,0.5332,56.26,56.11,177.5,0.15,1.775
01:08:10,2.3210,0.0859,2.6457,0.5334,56.27,56.14,223.0,0.2,2.23
01:08:20,5.0120,0.5121,2.6528,0.5348,56.42,56.29,798.0,2.57,7.98
01:08:30,5.0110,0.5121,2.6600,0.5362,56.57,56.44,799.0,2.57,7.99
01:08:40,5.0110,0.5122,2.6671,0.5377,56.73,56.59,786.0,2.57,7.86
01:08:50,5.0110,0.5123,2.6742,0.5391,56.88,56.74,782.0,2.57,7.82
01:09:00,5.0110,0.5122,2.6814,0.5405,57.03,56.89,781.0,2.57,7.81
01:09:10,5.0110,0.5123,2.6885,0.5419,57.18,57.04,780.0,2.57,7.8
01:09:20,5.0100,0.5124,2.6956,0.5434,57.33,57.19,777.0,2.57,7.77
01:09:30,5.0100,0.5123,2.7028,0.5448,57.48,57.34,778.0,2.57,7.78
01:09:40,5.0100,0.5122,2.7099,0.5462,57.64,57.49,777.0,2.57,7.77
01:09:50,5.0100,0.5122,2.7170,0.5476,57.79,57.63,777.0,2.57,7.77
01:10:00,5.0100,0.5124,2.7241,0.5491,57.94,57.78,780.0,2.57,7.8
01:10:10,5.0090,0.5125,2.7313,0.5505,58.09,57.93,784.0,2.57,7.84
01:10:20,5.0090,0.5124,2.7384,0.5519,58.24,58.08,784.0,2.57,7.84
01:10:30,5.0090,0.5123,2.7455,0.5533,58.39,58.23,785.0,2.57,7.85
01:10:40,5.0090,0.5123,2.7527,0.5547,58.55,58.38,787.0,2.57,7.87
01:10:50,5.0100,0.5123,2.7598,0.5562,58.70,58.53,788.0,2.57,7.88
01:11:00,5.0090,0.5121,2.7669,0.5576,58.85,58.68,790.0,2.57,7.9
01:11:10,5.0090,0.5122,2.7740,0.5590,59.00,58.83,789.0,2.57,7.89
01:11:20,5.0090,0.5123,2.7812,0.5604,59.15,58.98,791.0,2.57,7.91
01:11:30,5.0090,0.5122,2.7883,0.5619,59.30,59.13,793.0,2.57,7.93
01:11:40,5.0090,0.5124,2.7954,0.5633,59.46,59.28,792.0,2.57,7.92
01:11:50,5.0090,0.5124,2.8026,0.5647,59.61,59.43,795.0,2.57,7.95
01:12:00,5.0090,0.5123,2.8097,0.5661,59.76,59.58,792.0,2.57,7.92
01:12:10,5.0090,0.5123,2.8168,0.5676,59.91,59.73,790.0,2.57,7.9
01:12:20,5.0090,0.5125,2.8239,0.5690,60.06,59.88,790.0,2.57,7.9
01:12:30,5.0090,0.5122,2.8311,0.5704,60.21,60.03,788.0,2.57,7.88
01:12:40,5.0090,0.5122,2.8382,0.5718,60.37,60.18,785.0,2.57,7.85
01:12:50,5.0090,0.5121,2.8453,0.5732,60.52,60.33,785.0,2.57,7.85
01:13:00,5.0090,0.5123,2.8524,0.5747,60.67,60.48,783.0,2.57,7.83
01:13:10,5.0090,0.5124,2.8596,0.5761,60.82,60.63,782.0,2.57,7.82
01:13:20,5.0090,0.5124,2.8667,0.5775,60.97,60.78,782.0,2.57,7.82
01:13:30,5.0090,0.5123,2.8738,0.5789,61.12,60.93,782.0,2.57,7.82
01:13:40,5.0090,0.5125,2.8810,0.5804,61.28,61.08,780.0,2.57,7.8
01:13:50,5.0090,0.5122,2.8881,0.5818,61.43,61.23,778.0,2.57,7.78
01:14:00,5.0090,0.5122,2.8952,0.5832,61.58,61.38,777.0,2.57,7.77
01:14:10,5.0090,0.5122,2.9023,0.5846,61.73,61.53,776.0,2.57,7.76
01:14:20,5.0090,0.5124,2.9095,0.5861,61.88,61.68,775.0,2.57,7.75
01:14:30,5.0090,0.5122,2.9166,0.5875,62.03,61.83,773.0,2.57,7.73
01:14:40,5.0090,0.5123,2.9237,0.5889,62.18,61.98,775.0,2.57,7.75
01:14:50,5.0090,0.5123,2.9309,0.5903,62.34,62.13,775.0,2.57,7.75
01:15:00,5.0090,0.5124,2.9380,0.5917,62.49,62.28,775.0,2.57,7.75
01:15:10,5.0090,0.5121,2.9451,0.5932,62.64,62.43,773.0,2.57,7.73
01:15:20,5.0090,0.5122,2.9522,0.5946,62.79,62.58,776.0,2.57,7.76
01:15:30,5.0090,0.5122,2.9594,0.5960,62.94,62.73,774.0,2.57,7.74
01:15:40,5.0090,0.5125,2.9665,0.5974,63.09,62.88,773.0,2.57,7.73
01:15:50,5.0090,0.5123,2.9736,0.5989,63.25,63.03,771.0,2.57,7.71
01:16:00,5.0090,0.5122,2.9807,0.6003,63.40,63.18,773.0,2.57,7.73
01:16:10,5.0090,0.5125,2.9879,0.6017,63.55,63.33,778.0,2.57,7.78
01:16:20,5.0090,0.5124,2.9950,0.6031,63.70,63.48,777.0,2.57,7.77
01:16:30,5.0090,0.5120,3.0021,0.6046,63.85,63.63,776.0,2.56,7.76
01:16:40,5.0090,0.5123,3.0093,0.6060,64.00,63.78,779.0,2.57,7.79
01:16:50,5.0090,0.5123,3.0164,0.6074,64.16,63.93,783.0,2.57,7.83
01:17:00,5.0090,0.5122,3.0235,0.6088,64.31,64.07,784.0,2.57,7.84
01:17:10,5.0090,0.5123,3.0306,0.6102,64.46,64.22,783.0,2.57,7.83
01:17:20,5.0090,0.5124,3.0378,0.6117,64.61,64.37,783.0,2.57,7.83
01:17:30,5.0090,0.5123,3.0449,0.6131,64.76,64.52,782.0,2.57,7.82
01:17:40,5.0090,0.5123,3.0520,0.6145,64.91,64.67,784.0,2.57,7.84
01:17:50,5.0090,0.5122,3.0592,0.6159,65.07,64.82,786.0,2.57,7.86
01:18:00,5.0090,0.5124,3.0663,0.6174,65.22,64.97,782.0,2.57,7.82
01:18:10,5.1280,0.0092,3.0664,0.6174,65.22,64.98,369.0,0.05,3.69
01:18:20,5.0100,0.5122,3.0735,0.6188,65.37,65.13,704.0,2.57,7.04
01:18:30,5.0090,0.5124,3.0807,0.6202,65.52,65.28,722.0,2.57,7.22
01:18:40,5.0090,0.5121,3.0878,0.6217,65.67,65.43,774.0,2.57,7.74
01:18:50,5.0090,0.5122,3.0949,0.6231,65.83,65.58,760.0,2.57,7.6
01:19:00,5.0090,0.5125,3.1021,0.6245,65.98,65.72,784.0,2.57,7.84
01:19:10,5.0090,0.5121,3.1092,0.6259,66.13,65.87,782.0,2.57,7.82
01:19:20,5.0090,0.5124,3.1163,0.6273,66.28,66.02,785.0,2.57,7.85
01:19:30,5.0090,0.5122,3.1234,0.6288,66.43,66.17,789.0,2.57,7.89
01:19:40,5.0090,0.5123,3.1306,0.6302,66.58,66.32,792.0,2.57,7.92
01:19:50,4.5360,0.3198,3.1346,0.6311,66.67,66.42,550.0,1.45,5.5
01:20:00,5.0090,0.5123,3.1417,0.6325,66.82,66.57,704.0,2.57,7.04
01:20:10,5.0090,0.5120,3.1488,0.6339,66.97,66.72,792.0,2.56,7.92
01:20:20,5.0090,0.5121,3.1560,0.6353,67.12,66.87,790.0,2.57,7.9
01:20:30,5.0090,0.5122,3.1631,0.6368,67.28,67.02,787.0,2.57,7.87
01:20:40,5.0080,0.5120,3.1702,0.6382,67.43,67.17,784.0,2.56,7.84
01:20:50,5.0090,0.5123,3.1774,0.6396,67.58,67.32,788.0,2.57,7.88
01:21:00,5.0080,0.5122,3.1845,0.6410,67.73,67.47,787.0,2.57,7.87
01:21:10,5.0080,0.5122,3.1916,0.6425,67.88,67.62,786.0,2.57,7.86
01:21:20,5.0080,0.5123,3.1987,0.6439,68.03,67.77,783.0,2.57,7.83
01:21:30,5.0080,0.5121,3.2059,0.6453,68.19,67.91,780.0,2.56,7.8
01:21:40,5.0080,0.5121,3.2130,0.6467,68.34,68.06,779.0,2.56,7.79
01:21:50,5.0080,0.5135,3.2201,0.6482,68.49,68.21,782.0,2.57,7.82
01:22:00,5.0080,0.5123,3.2272,0.6496,68.64,68.36,781.0,2.57,7.81
01:22:10,5.0080,0.5121,3.2344,0.6510,68.79,68.51,777.0,2.56,7.77
01:22:20,5.0080,0.5123,3.2415,0.6524,68.94,68.66,780.0,2.57,7.8
01:22:30,5.0080,0.5124,3.2486,0.6538,69.09,68.81,781.0,2.57,7.81
01:22:40,5.0080,0.5122,3.2557,0.6553,69.25,68.96,781.0,2.57,7.81
01:22:50,5.0070,0.5124,3.2629,0.6567,69.40,69.11,780.0,2.57,7.8
01:23:00,5.0070,0.5124,3.2700,0.6581,69.55,69.26,780.0,2.57,7.8
01:23:10,5.0070,0.5123,3.2771,0.6595,69.70,69.41,780.0,2.57,7.8
01:23:20,5.0070,0.5124,3.2843,0.6610,69.85,69.56,777.0,2.57,7.77
01:23:30,5.0070,0.5124,3.2914,0.6624,70.00,69.71,778.0,2.57,7.78
01:23:40,5.0080,0.5124,3.2985,0.6638,70.16,69.86,776.0,2.57,7.76
01:23:50,5.0070,0.5125,3.3056,0.6652,70.31,70.01,774.0,2.57,7.74
01:24:00,5.0070,0.5124,3.3128,0.6667,70.46,70.16,773.0,2.57,7.73
01:24:10,5.0070,0.5123,3.3199,0.6681,70.61,70.31,773.0,2.57,7.73
01:24:20,5.0070,0.5124,3.3270,0.6695,70.76,70.46,775.0,2.57,7.75
01:24:30,5.0070,0.5123,3.3341,0.6709,70.91,70.61,774.0,2.57,7.74
01:24:40,5.0070,0.5124,3.3413,0.6724,71.07,70.76,772.0,2.57,7.72
01:24:50,5.0070,0.5123,3.3484,0.6738,71.22,70.91,774.0,2.57,7.74
01:25:00,5.0070,0.5124,3.3555,0.6752,71.37,71.06,773.0,2.57,7.73
01:25:10,5.0070,0.5125,3.3626,0.6766,71.52,71.21,770.0,2.57,7.7
01:25:20,5.0070,0.5122,3.3698,0.6780,71.67,71.36,770.0,2.56,7.7
01:25:30,5.0070,0.5123,3.3769,0.6795,71.82,71.51,768.0,2.57,7.68
01:25:40,5.0070,0.5123,3.3840,0.6809,71.97,71.66,771.0,2.57,7.71
01:25:50,5.0070,0.5123,3.3911,0.6823,72.13,71.81,767.0,2.57,7.67
01:26:00,5.0060,0.5122,3.3983,0.6837,72.28,71.96,767.0,2.56,7.67
01:26:10,5.0060,0.5123,3.4054,0.6852,72.43,72.11,765.0,2.56,7.65
01:26:20,5.0060,0.5121,3.4125,0.6866,72.58,72.26,764.0,2.56,7.64
01:26:30,5.0060,0.5123,3.4196,0.6880,72.73,72.41,762.0,2.56,7.62
01:26:40,5.0060,0.5122,3.4268,0.6894,72.88,72.56,759.0,2.56,7.59
01:26:50,5.0070,0.5124,3.4339,0.6909,73.04,72.71,759.0,2.57,7.59
01:27:00,5.0060,0.5123,3.4410,0.6923,73.19,72.86,761.0,2.56,7.61
01:27:10,5.0070,0.5122,3.4481,0.6937,73.34,73.01,759.0,2.56,7.59
01:27:20,5.0070,0.5122,3.4553,0.6951,73.49,73.16,757.0,2.56,7.57
01:27:30,5.0070,0.5123,3.4624,0.6965,73.64,73.31,753.0,2.57,7.53
01:27:40,5.0070,0.5120,3.4695,0.6980,73.79,73.46,747.0,2.56,7.47
01:27:50,5.0070,0.5124,3.4766,0.6994,73.94,73.61,749.0,2.57,7.49
01:28:00,5.0070,0.5123,3.4838,0.7008,74.10,73.76,747.0,2.57,7.47
01:28:10,5.0070,0.5123,3.4909,0.7022,74.25,73.91,748.0,2.57,7.48
01:28:20,5.0060,0.5122,3.4980,0.7037,74.40,74.06,750.0,2.56,7.5
01:28:30,5.0070,0.5123,3.5051,0.7051,74.55,74.21,747.0,2.57,7.47
01:28:40,5.0070,0.5124,3.5123,0.7065,74.70,74.36,748.0,2.57,7.48
01:28:50,5.0070,0.5120,3.5194,0.7079,74.85,74.50,749.0,2.56,7.49
01:29:00,5.0070,0.5122,3.5265,0.7093,75.01,74.65,751.0,2.56,7.51
01:29:10,5.0070,0.5123,3.5336,0.7108,75.16,74.80,750.0,2.57,7.5
01:29:20,5.0070,0.5122,3.5408,0.7122,75.31,74.95,752.0,2.56,7.52
01:29:30,5.0070,0.5121,3.5479,0.7136,75.46,75.10,750.0,2.56,7.5
01:29:40,5.0070,0.5123,3.5550,0.7150,75.61,75.25,755.0,2.57,7.55
01:29:50,5.0060,0.5123,3.5621,0.7165,75.76,75.40,755.0,2.56,7.55
01:30:00,5.0060,0.5121,3.5692,0.7179,75.91,75.55,754.0,2.56,7.54
01:30:10,5.0060,0.5122,3.5764,0.7193,76.07,75.70,754.0,2.56,7.54
01:30:20,5.0060,0.5124,3.5835,0.7207,76.22,75.85,754.0,2.57,7.54
01:30:30,5.0060,0.5122,3.5906,0.7222,76.37,76.00,756.0,2.56,7.56
01:30:40,5.0070,0.5122,3.5977,0.7236,76.52,76.15,755.0,2.56,7.55
01:30:50,5.0070,0.5123,3.6049,0.7250,76.67,76.30,753.0,2.57,7.53
01:31:00,5.0070,0.5120,3.6120,0.7264,76.82,76.45,756.0,2.56,7.56
01:31:10,5.0060,0.5122,3.6191,0.7278,76.97,76.60,758.0,2.56,7.58
01:31:20,5.0070,0.5124,3.6262,0.7293,77.13,76.75,759.0,2.57,7.59
01:31:30,5.0060,0.5124,3.6334,0.7307,77.28,76.90,762.0,2.57,7.62
01:31:40,5.0070,0.5123,3.6405,0.7321,77.43,77.05,764.0,2.57,7.64
01:31:50,5.0070,0.5123,3.6476,0.7335,77.58,77.20,764.0,2.57,7.64
01:32:00,5.0070,0.5124,3.6547,0.7350,77.73,77.35,764.0,2.57,7.64
01:32:10,5.0070,0.5121,3.6619,0.7364,77.88,77.50,766.0,2.56,7.66
01:32:20,5.0070,0.5123,3.6690,0.7378,78.04,77.65,766.0,2.57,7.66
01:32:30,5.0070,0.5124,3.6761,0.7392,78.19,77.80,764.0,2.57,7.64
01:32:40,5.0070,0.5123,3.6832,0.7407,78.34,77.95,765.0,2.57,7.65
01:32:50,5.0070,0.5124,3.6904,0.7421,78.49,78.10,766.0,2.57,7.66
01:33:00,5.0070,0.5124,3.6975,0.7435,78.64,78.25,765.0,2.57,7.65
01:33:10,5.0070,0.5121,3.7046,0.7449,78.79,78.40,765.0,2.56,7.65
01:33:20,5.0080,0.5122,3.7117,0.7463,78.94,78.55,765.0,2.57,7.65
01:33:30,5.0070,0.5123,3.7189,0.7478,79.10,78.70,763.0,2.57,7.63
01:33:40,5.0070,0.5121,3.7260,0.7492,79.25,78.85,766.0,2.56,7.66
01:33:50,5.0080,0.5123,3.7331,0.7506,79.40,79.00,764.0,2.57,7.64
01:34:00,5.0080,0.5121,3.7402,0.7520,79.55,79.15,763.0,2.56,7.63
01:34:10,5.0080,0.5123,3.7474,0.7535,79.70,79.30,762.0,2.57,7.62
01:34:20,5.0080,0.5121,3.7545,0.7549,79.85,79.45,761.0,2.56,7.61
01:34:30,5.0080,0.5121,3.7616,0.7563,80.01,79.60,758.0,2.56,7.58
01:34:40,5.0080,0.5123,3.7687,0.7577,80.16,79.75,757.0,2.57,7.57
01:34:50,5.0080,0.5122,3.7759,0.7591,80.31,79.90,746.0,2.57,7.46
01:35:00,5.0080,0.5123,3.7830,0.7606,80.46,80.05,750.0,2.57,7.5
01:35:10,5.0080,0.5122,3.7901,0.7620,80.61,80.20,751.0,2.57,7.51
01:35:20,5.0080,0.5125,3.7972,0.7634,80.76,80.35,752.0,2.57,7.52
01:35:30,5.0080,0.5122,3.8044,0.7648,80.92,80.49,751.0,2.57,7.51
01:35:40,5.0080,0.5122,3.8115,0.7663,81.07,80.64,745.0,2.57,7.45
01:35:50,5.0080,0.5122,3.8186,0.7677,81.22,80.79,746.0,2.57,7.46
01:36:00,5.0080,0.5122,3.8257,0.7691,81.37,80.94,745.0,2.57,7.45
01:36:10,5.0080,0.5122,3.8329,0.7705,81.52,81.09,742.0,2.57,7.42
01:36:20,5.0080,0.5122,3.8400,0.7720,81.67,81.24,742.0,2.57,7.42
01:36:30,5.0080,0.5122,3.8471,0.7734,81.82,81.39,740.0,2.57,7.4
01:36:40,5.0080,0.5124,3.8542,0.7748,81.98,81.54,739.0,2.57,7.39
01:36:50,5.0080,0.5121,3.8614,0.7762,82.13,81.69,738.0,2.56,7.38
01:37:00,5.0080,0.5122,3.8685,0.7776,82.28,81.84,739.0,2.57,7.39
01:37:10,5.0080,0.5123,3.8756,0.7791,82.43,81.99,737.0,2.57,7.37
01:37:20,5.0080,0.5122,3.8827,0.7805,82.58,82.14,736.0,2.57,7.36
01:37:30,5.0080,0.5122,3.8899,0.7819,82.73,82.29,734.0,2.57,7.34
01:37:40,5.0080,0.5123,3.8970,0.7833,82.89,82.44,734.0,2.57,7.34
01:37:50,5.0080,0.5123,3.9041,0.7848,83.04,82.59,737.0,2.57,7.37
01:38:00,5.0090,0.5122,3.9113,0.7862,83.19,82.74,736.0,2.57,7.36
01:38:10,5.0090,0.5123,3.9184,0.7876,83.34,82.89,734.0,2.57,7.34
01:38:20,5.0090,0.5122,3.9255,0.7890,83.49,83.04,734.0,2.57,7.34
01:38:30,5.0080,0.5123,3.9326,0.7905,83.64,83.19,732.0,2.57,7.32
01:38:40,5.0090,0.5124,3.9398,0.7919,83.79,83.34,732.0,2.57,7.32
01:38:50,5.0090,0.5122,3.9469,0.7933,83.95,83.49,731.0,2.57,7.31
01:39:00,5.0080,0.5120,3.9540,0.7947,84.10,83.64,732.0,2.56,7.32
01:39:10,5.0080,0.5122,3.9611,0.7961,84.25,83.79,731.0,2.57,7.31
01:39:20,5.0080,0.5122,3.9683,0.7976,84.40,83.94,727.0,2.57,7.27
01:39:30,5.0080,0.5129,3.9754,0.7990,84.55,84.09,728.0,2.57,7.28
01:39:40,5.0080,0.5122,3.9825,0.8004,84.70,84.24,728.0,2.57,7.28
01:39:50,5.0080,0.5134,3.9897,0.8018,84.86,84.39,728.0,2.57,7.28
01:40:00,5.0080,0.5121,3.9968,0.8033,85.01,84.54,727.0,2.56,7.27
01:40:10,5.0080,0.5123,4.0039,0.8047,85.16,84.69,731.0,2.57,7.31
01:40:20,5.0080,0.5123,4.0110,0.8061,85.31,84.84,734.0,2.57,7.34
01:40:30,5.0070,0.5122,4.0182,0.8075,85.46,84.99,731.0,2.56,7.31
01:40:40,5.0070,0.5124,4.0253,0.8090,85.61,85.14,730.0,2.57,7.3
01:40:50,5.0070,0.5123,4.0324,0.8104,85.77,85.29,731.0,2.57,7.31
01:41:00,5.0070,0.5123,4.0395,0.8118,85.92,85.44,733.0,2.57,7.33
01:41:10,5.0070,0.5121,4.0467,0.8132,86.07,85.59,735.0,2.56,7.35
01:41:20,5.0070,0.5123,4.0538,0.8146,86.22,85.74,738.0,2.57,7.38
01:41:30,5.0070,0.5123,4.0609,0.8161,86.37,85.89,738.0,2.57,7.38
01:41:40,5.0080,0.5122,4.0680,0.8175,86.52,86.04,740.0,2.57,7.4
01:41:50,5.0070,0.5122,4.0752,0.8189,86.67,86.19,736.0,2.56,7.36
01:42:00,5.0070,0.5122,4.0823,0.8203,86.83,86.34,735.0,2.56,7.35
01:42:10,5.0070,0.5122,4.0894,0.8218,86.98,86.49,732.0,2.56,7.32
01:42:20,5.0070,0.5124,4.0965,0.8232,87.13,86.64,730.0,2.57,7.3
01:42:30,5.0070,0.5124,4.1037,0.8246,87.28,86.78,727.0,2.57,7.27
01:42:40,5.0070,0.5123,4.1108,0.8260,87.43,86.93,727.0,2.57,7.27
01:42:50,5.0070,0.5122,4.1179,0.8275,87.58,87.08,725.0,2.56,7.25
01:43:00,5.0070,0.5124,4.1250,0.8289,87.74,87.23,726.0,2.57,7.26
01:43:10,5.0070,0.5122,4.1322,0.8303,87.89,87.38,727.0,2.56,7.27
01:43:20,5.0070,0.5123,4.1393,0.8317,88.04,87.53,726.0,2.57,7.26
01:43:30,5.0070,0.5123,4.1464,0.8331,88.19,87.68,726.0,2.57,7.26
01:43:40,5.0070,0.5121,4.1535,0.8346,88.34,87.83,727.0,2.56,7.27
01:43:50,5.0070,0.5122,4.1607,0.8360,88.49,87.98,731.0,2.56,7.31
01:44:00,5.0070,0.5123,4.1678,0.8374,88.64,88.13,735.0,2.57,7.35
01:44:10,5.0070,0.5122,4.1749,0.8388,88.80,88.28,734.0,2.56,7.34
01:44:20,5.0070,0.5123,4.1820,0.8403,88.95,88.43,731.0,2.57,7.31
01:44:30,5.0070,0.5122,4.1892,0.8417,89.10,88.58,733.0,2.56,7.33
01:44:40,5.0080,0.5123,4.1963,0.8431,89.25,88.73,730.0,2.57,7.3
01:44:50,5.0080,0.5125,4.2034,0.8445,89.40,88.88,729.0,2.57,7.29
01:45:00,5.0080,0.5122,4.2105,0.8460,89.55,89.03,733.0,2.57,7.33
01:45:10,5.0080,0.5123,4.2177,0.8474,89.71,89.18,735.0,2.57,7.35
01:45:20,5.0080,0.5124,4.2248,0.8488,89.86,89.33,731.0,2.57,7.31
01:45:30,5.0080,0.5123,4.2319,0.8502,90.01,89.48,726.0,2.57,7.26
01:45:40,5.1240,0.0091,4.2321,0.8502,90.01,89.48,702.0,0.05,7.02
01:45:50,5.0080,0.5124,4.2392,0.8517,90.16,89.63,708.0,2.57,7.08
01:46:00,5.0080,0.5122,4.2463,0.8531,90.31,89.78,725.0,2.57,7.25
01:46:10,5.0080,0.5124,4.2534,0.8545,90.47,89.93,738.0,2.57,7.38
01:46:20,5.0080,0.5120,4.2606,0.8559,90.62,90.08,738.0,2.56,7.38
01:46:30,5.0080,0.5127,4.2677,0.8574,90.77,90.23,741.0,2.57,7.41
01:46:40,5.0070,0.5123,4.2748,0.8588,90.92,90.38,741.0,2.57,7.41
01:46:50,5.0070,0.5120,4.2819,0.8602,91.07,90.53,747.0,2.56,7.47
01:47:00,5.0070,0.5123,4.2891,0.8616,91.22,90.68,748.0,2.57,7.48
01:47:10,5.0320,0.5095,4.2962,0.8630,91.38,90.83,657.0,2.56,6.57
01:47:20,5.1260,0.0093,4.2963,0.8631,91.38,90.83,698.0,0.05,6.98
01:47:30,2.7450,0.0812,4.2969,0.8633,91.39,90.86,106.6,0.22,1.066
01:47:40,2.6970,0.0795,4.2975,0.8635,91.40,90.88,101.7,0.21,1.017
01:47:50,2.7070,0.0804,4.2981,0.8637,91.42,90.90,103.3,0.22,1.033
01:48:00,5.1270,0.0092,4.2983,0.8638,91.42,90.91,418.0,0.05,4.18
01:48:10,2.4010,0.0833,4.2988,0.8640,91.43,90.93,138.9,0.2,1.389
01:48:20,4.7660,0.1484,4.3008,0.8644,91.47,90.97,434.0,0.71,4.34
01:48:30,5.0090,0.5122,4.3079,0.8658,91.62,91.12,737.0,2.57,7.37
01:48:40,5.0090,0.5119,4.3150,0.8673,91.78,91.27,718.0,2.56,7.18
01:48:50,5.0090,0.5121,4.3222,0.8687,91.93,91.42,700.0,2.57,7.0
01:49:00,5.0090,0.5121,4.3293,0.8701,92.08,91.57,681.0,2.57,6.81
01:49:10,5.0090,0.5122,4.3364,0.8715,92.23,91.72,720.0,2.57,7.2
01:49:20,5.0080,0.5123,4.3435,0.8729,92.38,91.87,733.0,2.57,7.33
01:49:30,5.0080,0.5120,4.3507,0.8744,92.53,92.02,741.0,2.56,7.41
01:49:40,5.0080,0.5117,4.3578,0.8758,92.69,92.17,748.0,2.56,7.48
01:49:50,5.0080,0.5123,4.3649,0.8772,92.84,92.32,688.0,2.57,6.88
01:50:00,4.5920,0.0091,4.3650,0.8772,92.84,92.32,521.0,0.04,5.21
01:50:10,2.4360,0.0779,4.3655,0.8775,92.85,92.35,123.0,0.19,1.23
01:50:20,2.3400,0.0692,4.3660,0.8776,92.86,92.37,118.3,0.16,1.183
01:50:30,2.3130,0.0637,4.3664,0.8778,92.87,92.39,119.5,0.15,1.195
01:50:40,2.3450,0.0990,4.3671,0.8781,92.88,92.41,184.1,0.23,1.841
01:50:50,2.3180,0.0894,4.3676,0.8783,92.90,92.44,273.0,0.21,2.73
01:51:00,2.3170,0.0815,4.3682,0.8786,92.91,92.46,180.1,0.19,1.801
01:51:10,2.3170,0.0797,4.3687,0.8788,92.92,92.49,167.0,0.18,1.67
01:51:20,2.3120,0.0791,4.3692,0.8790,92.93,92.51,152.2,0.18,1.522
01:51:30,2.3300,0.1156,4.3699,0.8793,92.94,92.54,366.0,0.27,3.66
01:51:40,2.3080,0.0684,4.3704,0.8795,92.95,92.56,175.5,0.16,1.755
01:51:50,2.3030,0.0640,4.3708,0.8797,92.96,92.58,122.4,0.15,1.224
01:52:00,2.3020,0.0629,4.3712,0.8799,92.97,92.60,111.5,0.14,1.115
01:52:10,2.3020,0.0616,4.3716,0.8801,92.98,92.62,107.1,0.14,1.071
01:52:20,2.3030,0.0622,4.3720,0.8802,92.99,92.64,103.1,0.14,1.031
01:52:30,2.3030,0.0621,4.3724,0.8804,93.00,92.66,101.7,0.14,1.017
01:52:40,5.1300,0.0095,4.3725,0.8804,93.00,92.66,102.3,0.05,1.023
01:52:50,5.0110,0.5122,4.3796,0.8818,93.15,92.81,736.0,2.57,7.36
01:53:00,5.0110,0.5123,4.3868,0.8833,93.30,92.96,736.0,2.57,7.36
01:53:10,5.0110,0.5123,4.3939,0.8847,93.45,93.11,735.0,2.57,7.35
01:53:20,5.0110,0.5121,4.4010,0.8861,93.61,93.26,731.0,2.57,7.31
01:53:30,5.0110,0.5120,4.4081,0.8875,93.76,93.41,726.0,2.57,7.26
01:53:40,5.0100,0.5120,4.4153,0.8890,93.91,93.56,723.0,2.57,7.23
01:53:50,5.0100,0.5120,4.4224,0.8904,94.06,93.71,718.0,2.57,7.18
01:54:00,5.0100,0.5121,4.4295,0.8918,94.21,93.86,717.0,2.57,7.17
01:54:10,5.0100,0.5121,4.4366,0.8932,94.36,94.01,708.0,2.57,7.08
01:54:20,5.0100,0.5121,4.4438,0.8946,94.51,94.16,715.0,2.57,7.15
01:54:30,5.0090,0.5118,4.4509,0.8961,94.67,94.31,716.0,2.56,7.16
01:54:40,5.0090,0.5114,4.4580,0.8975,94.82,94.46,711.0,2.56,7.11
01:54:50,5.0090,0.5122,4.4651,0.8989,94.97,94.61,693.0,2.57,6.93
01:55:00,5.0090,0.5121,4.4723,0.9003,95.12,94.75,722.0,2.57,7.22
01:55:10,5.0090,0.5120,4.4794,0.9018,95.27,94.90,728.0,2.56,7.28
01:55:20,5.0090,0.5123,4.4865,0.9032,95.42,95.05,722.0,2.57,7.22
01:55:30,5.0090,0.5122,4.4936,0.9046,95.58,95.20,722.0,2.57,7.22
01:55:40,5.0090,0.5122,4.5008,0.9060,95.73,95.35,724.0,2.57,7.24
01:55:50,5.0090,0.5122,4.5079,0.9074,95.88,95.50,720.0,2.57,7.2
01:56:00,5.0090,0.5123,4.5150,0.9089,96.03,95.65,728.0,2.57,7.28
01:56:10,5.1270,0.0092,4.5152,0.9089,96.03,95.66,590.0,0.05,5.9
01:56:20,2.4850,0.0751,4.5157,0.9091,96.04,95.68,113.9,0.19,1.139
01:56:30,2.3410,0.0590,4.5161,0.9093,96.05,95.70,100.8,0.14,1.008
01:56:40,2.3130,0.0573,4.5164,0.9094,96.06,95.71,95.7,0.13,0.957
01:56:50,2.3040,0.0573,4.5168,0.9096,96.07,95.73,93.2,0.13,0.932
01:57:00,2.3040,0.0573,4.5172,0.9097,96.08,95.75,91.5,0.13,0.915
01:57:10,2.3120,0.0597,4.5175,0.9099,96.08,95.76,90.6,0.14,0.906
01:57:20,2.8530,0.0873,4.5182,0.9102,96.10,95.79,91.1,0.25,0.911
01:57:30,4.6130,0.0090,4.5183,0.9102,96.10,95.79,363.0,0.04,3.63
01:57:40,5.0110,0.5122,4.5255,0.9116,96.25,95.94,715.0,2.57,7.15
01:57:50,5.0110,0.5122,4.5326,0.9130,96.40,96.09,711.0,2.57,7.11
01:58:00,5.0110,0.5120,4.5397,0.9144,96.56,96.24,710.0,2.57,7.1
01:58:10,5.0110,0.5120,4.5469,0.9159,96.71,96.39,708.0,2.57,7.08
01:58:20,5.0110,0.5123,4.5540,0.9173,96.86,96.54,680.0,2.57,6.8
01:58:30,5.1290,0.0146,4.5542,0.9173,96.86,96.54,296.0,0.07,2.96
01:58:40,5.1290,0.1052,4.5557,0.9176,96.90,96.57,368.0,0.54,3.68
01:58:50,4.6450,0.0091,4.5558,0.9177,96.90,96.58,604.0,0.04,6.04
01:59:00,4.6140,0.0090,4.5559,0.9177,96.90,96.58,323.0,0.04,3.23
01:59:10,2.7240,0.1471,4.5570,0.9181,96.92,96.62,107.6,0.4,1.076
01:59:20,2.4780,0.1067,4.5578,0.9184,96.94,96.65,300.0,0.26,3.0
01:59:30,2.6220,0.1843,4.5591,0.9189,96.97,96.71,378.0,0.48,3.78
01:59:40,2.3160,0.0637,4.5595,0.9191,96.98,96.73,161.0,0.15,1.61
01:59:50,2.3210,0.0767,4.5600,0.9193,96.99,96.75,108.8,0.18,1.088
02:00:00,2.3370,0.0831,4.5606,0.9195,97.00,96.77,269.0,0.19,2.69
02:00:10,2.3090,0.0580,4.5609,0.9197,97.01,96.79,84.2,0.13,0.842
02:00:20,2.3060,0.0552,4.5613,0.9198,97.01,96.81,79.0,0.13,0.79
02:00:30,2.3070,0.0560,4.5617,0.9200,97.02,96.82,75.1,0.13,0.751
02:00:40,2.8500,0.0754,4.5622,0.9202,97.03,96.84,73.7,0.21,0.737
02:00:50,2.7670,0.0696,4.5628,0.9204,97.05,96.87,73.9,0.19,0.739
02:01:00,2.3990,0.0612,4.5632,0.9206,97.05,96.88,75.1,0.15,0.751
02:01:10,2.3360,0.0581,4.5636,0.9207,97.06,96.90,77.6,0.14,0.776
02:01:20,2.3360,0.0731,4.5640,0.9209,97.07,96.92,99.1,0.17,0.991
02:01:30,2.3640,0.1053,4.5647,0.9212,97.09,96.95,204.0,0.25,2.04
02:01:40,2.6180,0.2935,4.5669,0.9220,97.13,97.04,705.0,0.77,7.05
02:01:50,2.6890,0.3004,4.5691,0.9229,97.18,97.13,704.0,0.81,7.04
02:02:00,2.4470,0.2211,4.5706,0.9235,97.21,97.19,700.0,0.54,7.0
02:02:10,2.3870,0.2013,4.5719,0.9240,97.24,97.25,698.0,0.48,6.98
02:02:20,2.3610,0.1682,4.5731,0.9245,97.26,97.30,698.0,0.4,6.98
02:02:30,0.2590,0.0000,4.5731,0.9245,97.26,97.30,696.0,0.0,6.96
02:02:40,5.0120,0.5123,4.5802,0.9259,97.42,97.45,697.0,2.57,6.97
02:02:50,5.0120,0.5119,4.5873,0.9273,97.57,97.60,694.0,2.57,6.94
02:03:00,5.0120,0.5124,4.5944,0.9288,97.72,97.75,691.0,2.57,6.91
02:03:10,5.0110,0.5120,4.6016,0.9302,97.87,97.90,691.0,2.57,6.91
02:03:20,5.0110,0.5122,4.6087,0.9316,98.02,98.05,690.0,2.57,6.9
02:03:30,5.0110,0.5123,4.6158,0.9330,98.17,98.20,688.0,2.57,6.88
02:03:40,5.0110,0.5120,4.6230,0.9345,98.33,98.35,687.0,2.57,6.87
02:03:50,5.0110,0.5122,4.6301,0.9359,98.48,98.50,686.0,2.57,6.86
02:04:00,5.0110,0.5122,4.6372,0.9373,98.63,98.65,685.0,2.57,6.85
02:04:10,5.1270,0.0208,4.6375,0.9374,98.64,98.65,685.0,0.11,6.85
02:04:20,5.0110,0.5124,4.6446,0.9388,98.79,98.80,684.0,2.57,6.84
02:04:30,5.0110,0.5122,4.6518,0.9402,98.94,98.95,685.0,2.57,6.85
02:04:40,5.0100,0.5121,4.6589,0.9416,99.09,99.10,684.0,2.57,6.84
02:04:50,5.0100,0.5123,4.6660,0.9431,99.24,99.25,681.0,2.57,6.81
02:05:00,5.0100,0.5123,4.6732,0.9445,99.39,99.40,681.0,2.57,6.81
02:05:10,5.0100,0.5122,4.6803,0.9459,99.54,99.55,683.0,2.57,6.83
02:05:20,5.0100,0.5125,4.6874,0.9473,99.70,99.70,682.0,2.57,6.82
02:05:30,5.0100,0.5124,4.6946,0.9488,99.85,99.85,681.0,2.57,6.81
02:05:40,5.0100,0.5123,4.7017,0.9502,100.00,100.00,681.0,2.57,6.81
02:05:50,5.0070,0.5125,4.7088,0.9516,100.15,100.15,678.0,2.57,6.78